id,timestamp,acc_x,acc_y,acc_z,gyro_x,gyro_y,gyro_z
1,2026-05-11 16:16:53.470921,0.31977475,-0.64851344,0.011281146,1.8666514,-0.57848936,-2.2134702
2,2026-05-11 16:16:53.480570,0.29587093,-0.7204079,-0.2008044,2.144137,-0.40653083,-2.2989914
3,2026-05-11 16:16:53.484014,0.29587093,-0.7204079,-0.2008044,2.144137,-0.40653083,-2.2989914
4,2026-05-11 16:16:53.487070,0.29587093,-0.7204079,-0.2008044,2.144137,-0.40653083,-2.2989914
5,2026-05-11 16:16:53.489795,0.29587093,-0.7204079,-0.2008044,2.144137,-0.40653083,-2.2989914
6,2026-05-11 16:16:53.492422,0.29587093,-0.7204079,-0.2008044,2.144137,-0.40653083,-2.2989914
7,2026-05-11 16:16:53.495069,0.29587093,-0.7204079,-0.2008044,2.144137,-0.40653083,-2.2989914
8,2026-05-11 16:16:53.497815,0.29587093,-0.7204079,-0.2008044,2.144137,-0.40653083,-2.2989914
9,2026-05-11 16:16:53.500749,0.29587093,-0.7204079,-0.2008044,2.144137,-0.40653083,-2.2989914
10,2026-05-11 16:16:53.503718,0.29587093,-0.7204079,-0.2008044,2.144137,-0.40653083,-2.2989914
11,2026-05-11 16:16:53.506355,0.29587093,-0.7204079,-0.2008044,2.144137,-0.40653083,-2.2989914
12,2026-05-11 16:16:53.508988,0.29587093,-0.7204079,-0.2008044,2.144137,-0.40653083,-2.2989914
13,2026-05-11 16:16:53.511796,0.29587093,-0.7204079,-0.2008044,2.144137,-0.40653083,-2.2989914
14,2026-05-11 16:16:53.514468,0.29587093,-0.7204079,-0.2008044,2.144137,-0.40653083,-2.2989914
15,2026-05-11 16:16:53.517776,0.29587093,-0.7204079,-0.2008044,2.144137,-0.40653083,-2.2989914
16,2026-05-11 16:16:53.520483,0.29587093,-0.7204079,-0.2008044,2.144137,-0.40653083,-2.2989914
17,2026-05-11 16:16:53.523139,0.29587093,-0.7204079,-0.2008044,2.144137,-0.40653083,-2.2989914
18,2026-05-11 16:16:53.525730,0.29587093,-0.7204079,-0.2008044,2.144137,-0.40653083,-2.2989914
19,2026-05-11 16:16:53.528483,0.29587093,-0.7204079,-0.2008044,2.144137,-0.40653083,-2.2989914
20,2026-05-11 16:16:53.531373,0.29587093,-0.7204079,-0.2008044,2.144137,-0.40653083,-2.2989914
21,2026-05-11 16:16:53.534479,0.29587093,-0.7204079,-0.2008044,2.144137,-0.40653083,-2.2989914
22,2026-05-11 16:16:53.537146,0.29587093,-0.7204079,-0.2008044,2.144137,-0.40653083,-2.2989914
23,2026-05-11 16:16:53.539876,0.29587093,-0.7204079,-0.2008044,2.144137,-0.40653083,-2.2989914
24,2026-05-11 16:16:53.542459,0.29587093,-0.7204079,-0.2008044,2.144137,-0.40653083,-2.2989914
25,2026-05-11 16:16:53.545288,0.29587093,-0.7204079,-0.2008044,2.144137,-0.40653083,-2.2989914
26,2026-05-11 16:16:53.548042,0.29587093,-0.7204079,-0.2008044,2.144137,-0.40653083,-2.2989914
27,2026-05-11 16:16:53.571386,-0.90554065,-1.929076,-0.9548118,1.6500998,-0.8561276,1.0939069
28,2026-05-11 16:16:53.574673,-0.90554065,-1.929076,-0.9548118,1.6500998,-0.8561276,1.0939069
29,2026-05-11 16:16:53.578111,-0.90554065,-1.929076,-0.9548118,1.6500998,-0.8561276,1.0939069
30,2026-05-11 16:16:53.581592,-0.933591,-2.0390823,-0.8689531,1.8145752,-0.82634795,1.5861117
31,2026-05-11 16:16:53.589247,-0.933591,-2.0390823,-0.8689531,2.087174,-0.8940013,2.1453588
32,2026-05-11 16:16:53.592336,-0.933591,-2.0390823,-0.8689531,2.087174,-0.8940013,2.1453588
33,2026-05-11 16:16:53.594958,-0.933591,-2.0390823,-0.8689531,2.087174,-0.8940013,2.1453588
34,2026-05-11 16:16:53.597762,-0.933591,-2.0390823,-0.8689531,2.087174,-0.8940013,2.1453588
35,2026-05-11 16:16:53.600785,-0.933591,-2.0390823,-0.8689531,2.087174,-0.8940013,2.1453588
36,2026-05-11 16:16:53.603595,-0.933591,-2.0390823,-0.8689531,2.087174,-0.8940013,2.1453588
37,2026-05-11 16:16:53.606178,-0.933591,-2.0390823,-0.8689531,2.087174,-0.8940013,2.1453588
38,2026-05-11 16:16:53.608963,-0.933591,-2.0390823,-0.8689531,2.087174,-0.8940013,2.1453588
39,2026-05-11 16:16:53.611571,-0.933591,-2.0390823,-0.8689531,2.087174,-0.8940013,2.1453588
40,2026-05-11 16:16:53.614140,-0.933591,-2.0390823,-0.8689531,2.087174,-0.8940013,2.1453588
41,2026-05-11 16:16:53.617314,-0.933591,-2.0390823,-0.8689531,2.087174,-0.8940013,2.1453588
42,2026-05-11 16:16:53.619996,-0.933591,-2.0390823,-0.8689531,2.087174,-0.8940013,2.1453588
43,2026-05-11 16:16:53.622594,-0.933591,-2.0390823,-0.8689531,2.087174,-0.8940013,2.1453588
44,2026-05-11 16:16:53.625350,-0.933591,-2.0390823,-0.8689531,2.087174,-0.8940013,2.1453588
45,2026-05-11 16:16:53.627940,-0.933591,-2.0390823,-0.8689531,2.087174,-0.8940013,2.1453588
46,2026-05-11 16:16:53.630760,-0.933591,-2.0390823,-0.8689531,2.087174,-0.8940013,2.1453588
47,2026-05-11 16:16:53.633785,-0.933591,-2.0390823,-0.8689531,2.087174,-0.8940013,2.1453588
48,2026-05-11 16:16:53.636560,-0.933591,-2.0390823,-0.8689531,2.087174,-0.8940013,2.1453588
49,2026-05-11 16:16:53.639124,-0.933591,-2.0390823,-0.8689531,2.087174,-0.8940013,2.1453588
50,2026-05-11 16:16:53.641716,-0.813584,-2.139881,-0.83029234,2.087174,-0.8940013,2.1453588
51,2026-05-11 16:16:53.644372,-0.813584,-2.139881,-0.83029234,2.087174,-0.8940013,2.1453588
52,2026-05-11 16:16:53.646927,-0.813584,-2.139881,-0.83029234,2.087174,-0.8940013,2.1453588
53,2026-05-11 16:16:53.649819,-0.813584,-2.139881,-0.83029234,2.087174,-0.8940013,2.1453588
54,2026-05-11 16:16:53.652975,-0.813584,-2.139881,-0.83029234,2.087174,-0.8940013,2.1453588
55,2026-05-11 16:16:53.655722,-0.813584,-2.139881,-0.83029234,2.087174,-0.8940013,2.1453588
56,2026-05-11 16:16:53.658345,-0.813584,-2.139881,-0.83029234,2.087174,-0.8940013,2.1453588
57,2026-05-11 16:16:53.661136,-0.813584,-2.139881,-0.83029234,2.087174,-0.8940013,2.1453588
58,2026-05-11 16:16:53.663720,-0.813584,-2.139881,-0.83029234,2.087174,-0.8940013,2.1453588
59,2026-05-11 16:16:53.666484,-0.813584,-2.139881,-0.83029234,2.087174,-0.8940013,2.1453588
60,2026-05-11 16:16:53.669658,-0.813584,-2.139881,-0.83029234,2.087174,-0.8940013,2.1453588
61,2026-05-11 16:16:53.672347,-0.813584,-2.139881,-0.83029234,2.087174,-0.8940013,2.1453588
62,2026-05-11 16:16:53.675142,-0.813584,-2.139881,-0.83029234,2.087174,-0.8940013,2.1453588
63,2026-05-11 16:16:53.677784,-0.813584,-2.139881,-0.83029234,2.087174,-0.8940013,2.1453588
64,2026-05-11 16:16:53.680561,-0.813584,-2.139881,-0.83029234,2.087174,-0.8940013,2.1453588
65,2026-05-11 16:16:53.683632,-0.813584,-2.139881,-0.83029234,2.087174,-0.8940013,2.1453588
66,2026-05-11 16:16:53.686482,-0.813584,-2.139881,-0.83029234,2.087174,-0.8940013,2.1453588
67,2026-05-11 16:16:53.689146,-0.813584,-2.139881,-0.83029234,2.087174,-0.8940013,2.1453588
68,2026-05-11 16:16:53.691749,-0.813584,-2.139881,-0.83029234,2.087174,-0.8940013,2.1453588
69,2026-05-11 16:16:53.694320,-0.813584,-2.139881,-0.83029234,2.087174,-0.8940013,2.1453588
70,2026-05-11 16:16:53.697072,-0.813584,-2.139881,-0.83029234,2.087174,-0.8940013,2.1453588
71,2026-05-11 16:16:53.700150,-0.813584,-2.139881,-0.83029234,2.087174,-0.8940013,2.1453588
72,2026-05-11 16:16:53.702969,-0.813584,-2.139881,-0.83029234,2.087174,-0.8940013,2.1453588
73,2026-05-11 16:16:53.705712,-0.813584,-2.139881,-0.83029234,2.087174,-0.8940013,2.1453588
74,2026-05-11 16:16:53.708272,-0.813584,-2.139881,-0.83029234,2.087174,-0.8940013,2.1453588
75,2026-05-11 16:16:53.710896,-0.813584,-2.139881,-0.83029234,2.087174,-0.8940013,2.1453588
76,2026-05-11 16:16:53.713430,-0.813584,-2.139881,-0.83029234,2.087174,-0.8940013,2.1453588
77,2026-05-11 16:16:53.716327,-0.813584,-2.139881,-0.83029234,2.087174,-0.8940013,2.1453588
78,2026-05-11 16:16:53.719076,-0.813584,-2.139881,-0.83029234,2.087174,-0.8940013,2.1453588
79,2026-05-11 16:16:53.721601,-0.813584,-2.139881,-0.83029234,2.087174,-0.8940013,2.1453588
80,2026-05-11 16:16:53.724273,-0.813584,-2.139881,-0.83029234,2.087174,-0.8940013,2.1453588
81,2026-05-11 16:16:53.726887,-0.813584,-2.139881,-0.83029234,2.087174,-0.8940013,2.1453588
82,2026-05-11 16:16:53.729638,-0.813584,-2.139881,-0.83029234,2.087174,-0.8940013,2.1453588
83,2026-05-11 16:16:53.732399,-0.813584,-2.139881,-0.83029234,2.087174,-0.8940013,2.1453588
84,2026-05-11 16:16:53.735956,-0.813584,-2.139881,-0.83029234,2.087174,-0.8940013,2.1453588
85,2026-05-11 16:16:53.738838,-0.6758321,-2.197994,-0.8737095,2.087174,-0.8940013,2.1453588
86,2026-05-11 16:16:53.741612,-0.6758321,-2.197994,-0.8737095,2.087174,-0.8940013,2.1453588
87,2026-05-11 16:16:53.744229,-0.6758321,-2.197994,-0.8737095,2.087174,-0.8940013,2.1453588
88,2026-05-11 16:16:53.746934,-0.6758321,-2.197994,-0.8737095,2.087174,-0.8940013,2.1453588
89,2026-05-11 16:16:53.749716,-0.6758321,-2.197994,-0.8737095,2.191479,-0.86742866,2.4923303
90,2026-05-11 16:16:53.753169,-0.6758321,-2.197994,-0.8737095,2.191479,-0.86742866,2.4923303
91,2026-05-11 16:16:53.756076,-0.6758321,-2.197994,-0.8737095,2.191479,-0.86742866,2.4923303
92,2026-05-11 16:16:53.758722,-0.6758321,-2.197994,-0.8737095,2.191479,-0.86742866,2.4923303
93,2026-05-11 16:16:53.761428,-0.6758321,-2.197994,-0.8737095,2.191479,-0.86742866,2.4923303
94,2026-05-11 16:16:53.764454,-0.6758321,-2.197994,-0.8737095,2.191479,-0.86742866,2.4923303
95,2026-05-11 16:16:53.768685,-0.6758321,-2.197994,-0.8737095,2.191479,-0.86742866,2.4923303
96,2026-05-11 16:16:53.771604,-0.6758321,-2.197994,-0.8737095,2.191479,-0.86742866,2.4923303
97,2026-05-11 16:16:53.774522,-0.6758321,-2.197994,-0.8737095,2.191479,-0.86742866,2.4923303
98,2026-05-11 16:16:53.777301,-0.6758321,-2.197994,-0.8737095,2.191479,-0.86742866,2.4923303
99,2026-05-11 16:16:53.779962,-0.6758321,-2.197994,-0.8737095,2.191479,-0.86742866,2.4923303
100,2026-05-11 16:16:53.783048,-0.6758321,-2.197994,-0.8737095,2.191479,-0.86742866,2.4923303
101,2026-05-11 16:16:53.785911,-0.6758321,-2.197994,-0.8737095,2.191479,-0.86742866,2.4923303
102,2026-05-11 16:16:53.788597,-0.6758321,-2.197994,-0.8737095,2.191479,-0.86742866,2.4923303
103,2026-05-11 16:16:53.791238,-0.6758321,-2.197994,-0.8737095,2.191479,-0.86742866,2.4923303
104,2026-05-11 16:16:53.793952,-0.6758321,-2.197994,-0.8737095,2.191479,-0.86742866,2.4923303
105,2026-05-11 16:16:53.796528,-0.6758321,-2.197994,-0.8737095,2.191479,-0.86742866,2.4923303
106,2026-05-11 16:16:53.799754,-0.6758321,-2.197994,-0.8737095,2.191479,-0.86742866,2.4923303
107,2026-05-11 16:16:53.802594,-0.6758321,-2.197994,-0.8737095,2.191479,-0.86742866,2.4923303
108,2026-05-11 16:16:53.805278,-0.6758321,-2.197994,-0.8737095,2.191479,-0.86742866,2.4923303
109,2026-05-11 16:16:53.808154,-0.6758321,-2.197994,-0.8737095,2.191479,-0.86742866,2.4923303
110,2026-05-11 16:16:53.811021,-0.6758321,-2.197994,-0.8737095,2.191479,-0.86742866,2.4923303
111,2026-05-11 16:16:53.813629,-0.6758321,-2.197994,-0.8737095,2.191479,-0.86742866,2.4923303
112,2026-05-11 16:16:53.816808,-0.6758321,-2.197994,-0.8737095,2.191479,-0.86742866,2.4923303
113,2026-05-11 16:16:53.819732,-0.6758321,-2.197994,-0.8737095,2.191479,-0.86742866,2.4923303
114,2026-05-11 16:16:53.822363,-0.6758321,-2.197994,-0.8737095,2.191479,-0.86742866,2.4923303
115,2026-05-11 16:16:53.824960,-0.6758321,-2.197994,-0.8737095,2.191479,-0.86742866,2.4923303
116,2026-05-11 16:16:53.827563,-0.6758321,-2.197994,-0.8737095,2.191479,-0.86742866,2.4923303
117,2026-05-11 16:16:53.830061,-0.6758321,-2.197994,-0.8737095,2.191479,-0.86742866,2.4923303
118,2026-05-11 16:16:53.833619,-0.6758321,-2.197994,-0.8737095,2.191479,-0.86742866,2.4923303
119,2026-05-11 16:16:53.836284,-0.6758321,-2.197994,-0.8737095,2.191479,-0.86742866,2.4923303
120,2026-05-11 16:16:53.838816,-0.6758321,-2.197994,-0.8737095,2.191479,-0.86742866,2.4923303
121,2026-05-11 16:16:53.841573,-0.6758321,-2.197994,-0.8737095,2.191479,-0.86742866,2.4923303
122,2026-05-11 16:16:53.844424,-0.6758321,-2.197994,-0.8737095,2.191479,-0.86742866,2.4923303
123,2026-05-11 16:16:53.847106,-0.6758321,-2.197994,-0.8737095,2.191479,-0.86742866,2.4923303
124,2026-05-11 16:16:53.850041,-0.6758321,-2.197994,-0.8737095,2.191479,-0.86742866,2.4923303
125,2026-05-11 16:16:53.852921,-0.6758321,-2.197994,-0.8737095,2.191479,-0.86742866,2.4923303
126,2026-05-11 16:16:53.855505,-0.6758321,-2.197994,-0.8737095,2.191479,-0.86742866,2.4923303
127,2026-05-11 16:16:53.858388,-0.6758321,-2.197994,-0.8737095,2.191479,-0.86742866,2.4923303
128,2026-05-11 16:16:53.861125,-0.6758321,-2.197994,-0.8737095,2.191479,-0.86742866,2.4923303
129,2026-05-11 16:16:53.863844,-0.6758321,-2.197994,-0.8737095,2.191479,-0.86742866,2.4923303
130,2026-05-11 16:16:53.866810,-0.6758321,-2.197994,-0.8737095,2.191479,-0.86742866,2.4923303
131,2026-05-11 16:16:53.869771,-0.6758321,-2.197994,-0.8737095,2.191479,-0.86742866,2.4923303
132,2026-05-11 16:16:53.872385,-0.6758321,-2.197994,-0.8737095,2.191479,-0.86742866,2.4923303
133,2026-05-11 16:16:53.875078,-0.6758321,-2.197994,-0.8737095,2.191479,-0.86742866,2.4923303
134,2026-05-11 16:16:53.877656,-0.6758321,-2.197994,-0.8737095,2.191479,-0.86742866,2.4923303
135,2026-05-11 16:16:53.880216,-0.6758321,-2.197994,-0.8737095,2.191479,-0.86742866,2.4923303
136,2026-05-11 16:16:53.883382,-0.6758321,-2.197994,-0.8737095,2.191479,-0.86742866,2.4923303
137,2026-05-11 16:16:53.886095,-0.6758321,-2.197994,-0.8737095,2.191479,-0.86742866,2.4923303
138,2026-05-11 16:16:53.888684,-0.6758321,-2.197994,-0.8737095,2.191479,-0.86742866,2.4923303
139,2026-05-11 16:16:53.891395,-0.6758321,-2.197994,-0.8737095,2.191479,-0.86742866,2.4923303
140,2026-05-11 16:16:53.893981,-0.6758321,-2.197994,-0.8737095,2.191479,-0.86742866,2.4923303
141,2026-05-11 16:16:53.896779,-0.6758321,-2.197994,-0.8737095,2.191479,-0.86742866,2.4923303
142,2026-05-11 16:16:53.899876,-0.6758321,-2.197994,-0.8737095,2.191479,-0.86742866,2.4923303
143,2026-05-11 16:16:53.902708,-0.6758321,-2.197994,-0.8737095,2.191479,-0.86742866,2.4923303
144,2026-05-11 16:16:53.905260,-0.6758321,-2.197994,-0.8737095,2.191479,-0.86742866,2.4923303
145,2026-05-11 16:16:53.907847,-0.6758321,-2.197994,-0.8737095,2.191479,-0.86742866,2.4923303
146,2026-05-11 16:16:53.910565,-0.6758321,-2.197994,-0.8737095,2.191479,-0.86742866,2.4923303
147,2026-05-11 16:16:53.913141,-0.6758321,-2.197994,-0.8737095,2.191479,-0.86742866,2.4923303
148,2026-05-11 16:16:53.916130,-0.6758321,-2.197994,-0.8737095,2.191479,-0.86742866,2.4923303
149,2026-05-11 16:16:53.918882,-0.6758321,-2.197994,-0.8737095,2.191479,-0.86742866,2.4923303
150,2026-05-11 16:16:53.921534,-0.6758321,-2.197994,-0.8737095,2.191479,-0.86742866,2.4923303
151,2026-05-11 16:16:53.924246,-0.6758321,-2.197994,-0.8737095,2.191479,-0.86742866,2.4923303
152,2026-05-11 16:16:53.926917,-0.6758321,-2.197994,-0.8737095,2.191479,-0.86742866,2.4923303
153,2026-05-11 16:16:53.929626,-0.6758321,-2.197994,-0.8737095,2.191479,-0.86742866,2.4923303
154,2026-05-11 16:16:53.932651,-0.6758321,-2.197994,-0.8737095,2.191479,-0.86742866,2.4923303
155,2026-05-11 16:16:53.935429,-0.6758321,-2.197994,-0.8737095,2.191479,-0.86742866,2.4923303
156,2026-05-11 16:16:53.938004,-0.6758321,-2.197994,-0.8737095,2.191479,-0.86742866,2.4923303
157,2026-05-11 16:16:53.940588,-0.6758321,-2.197994,-0.8737095,2.191479,-0.86742866,2.4923303
158,2026-05-11 16:16:53.943278,-0.6758321,-2.197994,-0.8737095,2.191479,-0.86742866,2.4923303
159,2026-05-11 16:16:53.946022,-0.50307816,-2.186591,-0.8710264,2.191479,-0.86742866,2.4923303
160,2026-05-11 16:16:53.948996,-0.50307816,-2.186591,-0.8710264,2.191479,-0.86742866,2.4923303
161,2026-05-11 16:16:53.951904,-0.50307816,-2.186591,-0.8710264,2.191479,-0.86742866,2.4923303
162,2026-05-11 16:16:53.954548,-0.50307816,-2.186591,-0.8710264,2.191479,-0.86742866,2.4923303
163,2026-05-11 16:16:53.957171,-0.50307816,-2.186591,-0.8710264,2.0216584,-0.63361996,2.8185322
164,2026-05-11 16:16:53.959844,-0.50307816,-2.186591,-0.8710264,2.0216584,-0.63361996,2.8185322
165,2026-05-11 16:16:53.962420,-0.50307816,-2.186591,-0.8710264,2.0216584,-0.63361996,2.8185322
166,2026-05-11 16:16:53.965219,-0.50307816,-2.186591,-0.8710264,2.0216584,-0.63361996,2.8185322
167,2026-05-11 16:16:53.968285,-0.50307816,-2.186591,-0.8710264,2.0216584,-0.63361996,2.8185322
168,2026-05-11 16:16:53.970921,-0.50307816,-2.186591,-0.8710264,2.0216584,-0.63361996,2.8185322
169,2026-05-11 16:16:53.973512,-0.50307816,-2.186591,-0.8710264,2.0216584,-0.63361996,2.8185322
170,2026-05-11 16:16:53.976057,-0.50307816,-2.186591,-0.8710264,2.0216584,-0.63361996,2.8185322
171,2026-05-11 16:16:53.978743,-0.50307816,-2.186591,-0.8710264,2.0216584,-0.63361996,2.8185322
172,2026-05-11 16:16:53.981477,-0.50307816,-2.186591,-0.8710264,2.0216584,-0.63361996,2.8185322
173,2026-05-11 16:16:53.984692,-0.50307816,-2.186591,-0.8710264,2.0216584,-0.63361996,2.8185322
174,2026-05-11 16:16:53.987382,-0.50307816,-2.186591,-0.8710264,2.0216584,-0.63361996,2.8185322
175,2026-05-11 16:16:53.990037,-0.50307816,-2.186591,-0.8710264,2.0216584,-0.63361996,2.8185322
176,2026-05-11 16:16:53.992623,-0.50307816,-2.186591,-0.8710264,2.0216584,-0.63361996,2.8185322
177,2026-05-11 16:16:53.995180,-0.50307816,-2.186591,-0.8710264,2.0216584,-0.63361996,2.8185322
178,2026-05-11 16:16:53.997908,-0.50307816,-2.186591,-0.8710264,2.0216584,-0.63361996,2.8185322
179,2026-05-11 16:16:54.000823,-0.50307816,-2.186591,-0.8710264,2.0216584,-0.63361996,2.8185322
180,2026-05-11 16:16:54.003481,-0.50307816,-2.186591,-0.8710264,2.0216584,-0.63361996,2.8185322
181,2026-05-11 16:16:54.006163,-0.50307816,-2.186591,-0.8710264,2.0216584,-0.63361996,2.8185322
182,2026-05-11 16:16:54.008745,-0.50307816,-2.186591,-0.8710264,2.0216584,-0.63361996,2.8185322
183,2026-05-11 16:16:54.011321,-0.50307816,-2.186591,-0.8710264,2.0216584,-0.63361996,2.8185322
184,2026-05-11 16:16:54.013876,-0.50307816,-2.186591,-0.8710264,2.0216584,-0.63361996,2.8185322
185,2026-05-11 16:16:54.016781,-0.50307816,-2.186591,-0.8710264,2.0216584,-0.63361996,2.8185322
186,2026-05-11 16:16:54.019483,-0.50307816,-2.186591,-0.8710264,2.0216584,-0.63361996,2.8185322
187,2026-05-11 16:16:54.022094,-0.50307816,-2.186591,-0.8710264,2.0216584,-0.63361996,2.8185322
188,2026-05-11 16:16:54.024647,-0.50307816,-2.186591,-0.8710264,2.0216584,-0.63361996,2.8185322
189,2026-05-11 16:16:54.027281,-0.50307816,-2.186591,-0.8710264,2.0216584,-0.63361996,2.8185322
190,2026-05-11 16:16:54.030073,-0.50307816,-2.186591,-0.8710264,2.0216584,-0.63361996,2.8185322
191,2026-05-11 16:16:54.033046,-0.50307816,-2.186591,-0.8710264,2.0216584,-0.63361996,2.8185322
192,2026-05-11 16:16:54.035764,-0.50307816,-2.186591,-0.8710264,2.0216584,-0.63361996,2.8185322
193,2026-05-11 16:16:54.038519,-0.50307816,-2.186591,-0.8710264,2.0216584,-0.63361996,2.8185322
194,2026-05-11 16:16:54.041128,-0.50307816,-2.186591,-0.8710264,2.0216584,-0.63361996,2.8185322
195,2026-05-11 16:16:54.043751,-0.50307816,-2.186591,-0.8710264,2.0216584,-0.63361996,2.8185322
196,2026-05-11 16:16:54.046312,-0.50307816,-2.186591,-0.8710264,2.0216584,-0.63361996,2.8185322
197,2026-05-11 16:16:54.049385,-0.50307816,-2.186591,-0.8710264,2.0216584,-0.63361996,2.8185322
198,2026-05-11 16:16:54.052110,-0.50307816,-2.186591,-0.8710264,2.0216584,-0.63361996,2.8185322
199,2026-05-11 16:16:54.054708,-0.50307816,-2.186591,-0.8710264,2.0216584,-0.63361996,2.8185322
200,2026-05-11 16:16:54.057384,-0.50307816,-2.186591,-0.8710264,2.0216584,-0.63361996,2.8185322
201,2026-05-11 16:16:54.059977,-0.50307816,-2.186591,-0.8710264,2.0216584,-0.63361996,2.8185322
202,2026-05-11 16:16:54.062649,-0.50307816,-2.186591,-0.8710264,2.0216584,-0.63361996,2.8185322
203,2026-05-11 16:16:54.065580,-0.50307816,-2.186591,-0.8710264,2.0216584,-0.63361996,2.8185322
204,2026-05-11 16:16:54.068570,-0.50307816,-2.186591,-0.8710264,2.0216584,-0.63361996,2.8185322
205,2026-05-11 16:16:54.071277,-0.50307816,-2.186591,-0.8710264,2.0216584,-0.63361996,2.8185322
206,2026-05-11 16:16:54.074019,-0.50307816,-2.186591,-0.8710264,2.0216584,-0.63361996,2.8185322
207,2026-05-11 16:16:54.076627,-0.50307816,-2.186591,-0.8710264,2.0216584,-0.63361996,2.8185322
208,2026-05-11 16:16:54.079388,-0.50307816,-2.186591,-0.8710264,2.0216584,-0.63361996,2.8185322
209,2026-05-11 16:16:54.082517,-0.50307816,-2.186591,-0.8710264,2.0216584,-0.63361996,2.8185322
210,2026-05-11 16:16:54.085336,-0.50307816,-2.186591,-0.8710264,2.0216584,-0.63361996,2.8185322
211,2026-05-11 16:16:54.087970,-0.50307816,-2.186591,-0.8710264,2.0216584,-0.63361996,2.8185322
212,2026-05-11 16:16:54.090728,-0.50307816,-2.186591,-0.8710264,2.0216584,-0.63361996,2.8185322
213,2026-05-11 16:16:54.093411,-0.50307816,-2.186591,-0.8710264,2.0216584,-0.63361996,2.8185322
214,2026-05-11 16:16:54.096276,-0.50307816,-2.186591,-0.8710264,2.0216584,-0.63361996,2.8185322
215,2026-05-11 16:16:54.099197,-0.50307816,-2.186591,-0.8710264,2.0216584,-0.63361996,2.8185322
216,2026-05-11 16:16:54.102038,-0.50307816,-2.186591,-0.8710264,2.0216584,-0.63361996,2.8185322
217,2026-05-11 16:16:54.104762,-0.50307816,-2.186591,-0.8710264,2.0216584,-0.63361996,2.8185322
218,2026-05-11 16:16:54.107340,-0.50307816,-2.186591,-0.8710264,2.0216584,-0.63361996,2.8185322
219,2026-05-11 16:16:54.109964,-0.50307816,-2.186591,-0.8710264,2.0216584,-0.63361996,2.8185322
220,2026-05-11 16:16:54.112539,-0.50307816,-2.186591,-0.8710264,2.0216584,-0.63361996,2.8185322
221,2026-05-11 16:16:54.115470,-0.50307816,-2.186591,-0.8710264,2.0216584,-0.63361996,2.8185322
222,2026-05-11 16:16:54.118557,-0.46508813,-2.1612236,-0.8615746,1.7983873,-0.4390594,2.9405525
223,2026-05-11 16:16:54.121154,-0.46508813,-2.1612236,-0.8615746,1.7983873,-0.4390594,2.9405525
224,2026-05-11 16:16:54.123720,-0.46508813,-2.1612236,-0.8615746,1.7983873,-0.4390594,2.9405525
225,2026-05-11 16:16:54.126328,-0.46508813,-2.1612236,-0.8615746,1.7983873,-0.4390594,2.9405525
226,2026-05-11 16:16:54.128909,-0.46508813,-2.1612236,-0.8615746,1.7983873,-0.4390594,2.9405525
227,2026-05-11 16:16:54.131679,-0.46508813,-2.1612236,-0.8615746,1.7983873,-0.4390594,2.9405525
228,2026-05-11 16:16:54.134688,-0.46508813,-2.1612236,-0.8615746,1.7983873,-0.4390594,2.9405525
229,2026-05-11 16:16:54.137605,-0.46508813,-2.1612236,-0.8615746,1.7983873,-0.4390594,2.9405525
230,2026-05-11 16:16:54.140202,-0.46508813,-2.1612236,-0.8615746,1.7983873,-0.4390594,2.9405525
231,2026-05-11 16:16:54.142937,-0.46508813,-2.1612236,-0.8615746,1.7983873,-0.4390594,2.9405525
232,2026-05-11 16:16:54.145528,-0.46508813,-2.1612236,-0.8615746,1.7983873,-0.4390594,2.9405525
233,2026-05-11 16:16:54.148287,-0.46508813,-2.1612236,-0.8615746,1.7983873,-0.4390594,2.9405525
234,2026-05-11 16:16:54.151236,-0.46508813,-2.1612236,-0.8615746,1.7983873,-0.4390594,2.9405525
235,2026-05-11 16:16:54.153840,-0.46508813,-2.1612236,-0.8615746,1.7983873,-0.4390594,2.9405525
236,2026-05-11 16:16:54.156550,-0.46508813,-2.1612236,-0.8615746,1.7983873,-0.4390594,2.9405525
237,2026-05-11 16:16:54.159166,-0.46508813,-2.1612236,-0.8615746,1.7983873,-0.4390594,2.9405525
238,2026-05-11 16:16:54.162070,-0.46508813,-2.1612236,-0.8615746,1.7983873,-0.4390594,2.9405525
239,2026-05-11 16:16:54.164746,-0.46508813,-2.1612236,-0.8615746,1.7983873,-0.4390594,2.9405525
240,2026-05-11 16:16:54.167793,-0.46508813,-2.1612236,-0.8615746,1.7983873,-0.4390594,2.9405525
241,2026-05-11 16:16:54.171014,-0.46508813,-2.1612236,-0.8615746,1.7983873,-0.4390594,2.9405525
242,2026-05-11 16:16:54.173608,-0.46508813,-2.1612236,-0.8615746,1.7983873,-0.4390594,2.9405525
243,2026-05-11 16:16:54.176162,-0.46508813,-2.1612236,-0.8615746,1.7983873,-0.4390594,2.9405525
244,2026-05-11 16:16:54.178718,-0.46508813,-2.1612236,-0.8615746,1.7983873,-0.4390594,2.9405525
245,2026-05-11 16:16:54.181314,-0.46508813,-2.1612236,-0.8615746,1.7983873,-0.4390594,2.9405525
246,2026-05-11 16:16:54.184221,-0.46508813,-2.1612236,-0.8615746,1.7983873,-0.4390594,2.9405525
247,2026-05-11 16:16:54.187611,-0.46508813,-2.1612236,-0.8615746,1.7983873,-0.4390594,2.9405525
248,2026-05-11 16:16:54.190294,-0.46508813,-2.1612236,-0.8615746,1.7983873,-0.4390594,2.9405525
249,2026-05-11 16:16:54.193029,-0.46508813,-2.1612236,-0.8615746,1.7983873,-0.4390594,2.9405525
250,2026-05-11 16:16:54.195587,-0.46508813,-2.1612236,-0.8615746,1.7983873,-0.4390594,2.9405525
251,2026-05-11 16:16:54.198577,-0.34373957,-2.0950613,-0.8122425,1.7983873,-0.4390594,2.9405525
252,2026-05-11 16:16:54.201608,-0.34373957,-2.0950613,-0.8122425,1.7983873,-0.4390594,2.9405525
253,2026-05-11 16:16:54.204219,-0.34373957,-2.0950613,-0.8122425,1.7983873,-0.4390594,2.9405525
254,2026-05-11 16:16:54.206792,-0.34373957,-2.0950613,-0.8122425,1.7983873,-0.4390594,2.9405525
255,2026-05-11 16:16:54.209678,-0.34373957,-2.0950613,-0.8122425,1.7983873,-0.4390594,2.9405525
256,2026-05-11 16:16:54.212313,-0.34373957,-2.0950613,-0.8122425,1.7983873,-0.4390594,2.9405525
257,2026-05-11 16:16:54.215359,-0.34373957,-2.0950613,-0.8122425,0.946383,0.1947133,3.2123876
258,2026-05-11 16:16:54.218375,-0.34373957,-2.0950613,-0.8122425,0.946383,0.1947133,3.2123876
259,2026-05-11 16:16:54.220978,-0.34373957,-2.0950613,-0.8122425,0.946383,0.1947133,3.2123876
260,2026-05-11 16:16:54.223547,-0.34373957,-2.0950613,-0.8122425,0.946383,0.1947133,3.2123876
261,2026-05-11 16:16:54.226158,-0.34373957,-2.0950613,-0.8122425,0.946383,0.1947133,3.2123876
262,2026-05-11 16:16:54.228725,-0.34373957,-2.0950613,-0.8122425,0.946383,0.1947133,3.2123876
263,2026-05-11 16:16:54.231321,-0.34373957,-2.0950613,-0.8122425,0.946383,0.1947133,3.2123876
264,2026-05-11 16:16:54.234626,-0.34373957,-2.0950613,-0.8122425,0.946383,0.1947133,3.2123876
265,2026-05-11 16:16:54.237272,-0.34373957,-2.0950613,-0.8122425,0.946383,0.1947133,3.2123876
266,2026-05-11 16:16:54.239882,-0.34373957,-2.0950613,-0.8122425,0.946383,0.1947133,3.2123876
267,2026-05-11 16:16:54.242464,-0.34373957,-2.0950613,-0.8122425,0.946383,0.1947133,3.2123876
268,2026-05-11 16:16:54.245294,-0.34373957,-2.0950613,-0.8122425,0.946383,0.1947133,3.2123876
269,2026-05-11 16:16:54.248081,-0.34373957,-2.0950613,-0.8122425,0.946383,0.1947133,3.2123876
270,2026-05-11 16:16:54.251303,-0.34373957,-2.0950613,-0.8122425,0.946383,0.1947133,3.2123876
271,2026-05-11 16:16:54.253937,-0.34373957,-2.0950613,-0.8122425,0.946383,0.1947133,3.2123876
272,2026-05-11 16:16:54.256603,-0.34373957,-2.0950613,-0.8122425,0.946383,0.1947133,3.2123876
273,2026-05-11 16:16:54.259234,-0.34373957,-2.0950613,-0.8122425,0.946383,0.1947133,3.2123876
274,2026-05-11 16:16:54.261808,-0.34373957,-2.0950613,-0.8122425,0.946383,0.1947133,3.2123876
275,2026-05-11 16:16:54.264349,-0.34373957,-2.0950613,-0.8122425,0.946383,0.1947133,3.2123876
276,2026-05-11 16:16:54.267701,-0.34373957,-2.0950613,-0.8122425,0.946383,0.1947133,3.2123876
277,2026-05-11 16:16:54.270453,-0.34373957,-2.0950613,-0.8122425,0.946383,0.1947133,3.2123876
278,2026-05-11 16:16:54.273172,-0.34373957,-2.0950613,-0.8122425,0.946383,0.1947133,3.2123876
279,2026-05-11 16:16:54.275872,-0.34373957,-2.0950613,-0.8122425,0.946383,0.1947133,3.2123876
280,2026-05-11 16:16:54.278466,-0.34373957,-2.0950613,-0.8122425,0.946383,0.1947133,3.2123876
281,2026-05-11 16:16:54.281353,-0.34373957,-2.0950613,-0.8122425,0.946383,0.1947133,3.2123876
282,2026-05-11 16:16:54.284431,-0.34373957,-2.0950613,-0.8122425,0.946383,0.1947133,3.2123876
283,2026-05-11 16:16:54.287520,-0.34373957,-2.0950613,-0.8122425,0.946383,0.1947133,3.2123876
284,2026-05-11 16:16:54.290216,-0.34373957,-2.0950613,-0.8122425,0.946383,0.1947133,3.2123876
285,2026-05-11 16:16:54.292909,-0.34373957,-2.0950613,-0.8122425,0.946383,0.1947133,3.2123876
286,2026-05-11 16:16:54.295481,-0.34373957,-2.0950613,-0.8122425,0.946383,0.1947133,3.2123876
287,2026-05-11 16:16:54.298297,-0.34373957,-2.0950613,-0.8122425,0.946383,0.1947133,3.2123876
288,2026-05-11 16:16:54.301687,-0.34373957,-2.0950613,-0.8122425,0.946383,0.1947133,3.2123876
289,2026-05-11 16:16:54.304507,-0.34373957,-2.0950613,-0.8122425,0.946383,0.1947133,3.2123876
290,2026-05-11 16:16:54.307310,-0.34373957,-2.0950613,-0.8122425,0.946383,0.1947133,3.2123876
291,2026-05-11 16:16:54.310045,-0.34373957,-2.0950613,-0.8122425,0.946383,0.1947133,3.2123876
292,2026-05-11 16:16:54.312776,-0.3187381,-2.0358505,-0.661563,0.946383,0.1947133,3.2123876
293,2026-05-11 16:16:54.315531,-0.3187381,-2.0358505,-0.661563,0.946383,0.1947133,3.2123876
294,2026-05-11 16:16:54.318863,-0.3187381,-2.0358505,-0.661563,0.946383,0.1947133,3.2123876
295,2026-05-11 16:16:54.321566,-0.3187381,-2.0358505,-0.661563,0.946383,0.1947133,3.2123876
296,2026-05-11 16:16:54.324335,-0.3187381,-2.0358505,-0.661563,0.946383,0.1947133,3.2123876
297,2026-05-11 16:16:54.327043,-0.3187381,-2.0358505,-0.661563,0.946383,0.1947133,3.2123876
298,2026-05-11 16:16:54.329613,-0.3187381,-2.0358505,-0.661563,0.946383,0.1947133,3.2123876
299,2026-05-11 16:16:54.332481,-0.3187381,-2.0358505,-0.661563,0.946383,0.1947133,3.2123876
300,2026-05-11 16:16:54.335821,-0.3187381,-2.0358505,-0.661563,0.946383,0.1947133,3.2123876
301,2026-05-11 16:16:54.338635,-0.3187381,-2.0358505,-0.661563,0.946383,0.1947133,3.2123876
302,2026-05-11 16:16:54.341252,-0.3187381,-2.0358505,-0.661563,0.946383,0.1947133,3.2123876
303,2026-05-11 16:16:54.344050,-0.3187381,-2.0358505,-0.661563,0.29886582,0.473726,3.370449
304,2026-05-11 16:16:54.346730,-0.3187381,-2.0358505,-0.661563,0.29886582,0.473726,3.370449
305,2026-05-11 16:16:54.350318,-0.3187381,-2.0358505,-0.661563,0.29886582,0.473726,3.370449
306,2026-05-11 16:16:54.353255,-0.3187381,-2.0358505,-0.661563,0.29886582,0.473726,3.370449
307,2026-05-11 16:16:54.355886,-0.3187381,-2.0358505,-0.661563,0.29886582,0.473726,3.370449
308,2026-05-11 16:16:54.358475,-0.3187381,-2.0358505,-0.661563,0.29886582,0.473726,3.370449
309,2026-05-11 16:16:54.361040,-0.3187381,-2.0358505,-0.661563,0.29886582,0.473726,3.370449
310,2026-05-11 16:16:54.363634,-0.3187381,-2.0358505,-0.661563,0.29886582,0.473726,3.370449
311,2026-05-11 16:16:54.366713,-0.3187381,-2.0358505,-0.661563,0.29886582,0.473726,3.370449
312,2026-05-11 16:16:54.369448,-0.3187381,-2.0358505,-0.661563,0.29886582,0.473726,3.370449
313,2026-05-11 16:16:54.372065,-0.3187381,-2.0358505,-0.661563,0.29886582,0.473726,3.370449
314,2026-05-11 16:16:54.374680,-0.3187381,-2.0358505,-0.661563,0.29886582,0.473726,3.370449
315,2026-05-11 16:16:54.377348,-0.3187381,-2.0358505,-0.661563,0.29886582,0.473726,3.370449
316,2026-05-11 16:16:54.379900,-0.3187381,-2.0358505,-0.661563,0.29886582,0.473726,3.370449
317,2026-05-11 16:16:54.383039,-0.3187381,-2.0358505,-0.661563,0.29886582,0.473726,3.370449
318,2026-05-11 16:16:54.385756,-0.3187381,-2.0358505,-0.661563,0.29886582,0.473726,3.370449
319,2026-05-11 16:16:54.388320,-0.3187381,-2.0358505,-0.661563,0.29886582,0.473726,3.370449
320,2026-05-11 16:16:54.391160,-0.3187381,-2.0358505,-0.661563,0.29886582,0.473726,3.370449
321,2026-05-11 16:16:54.393781,-0.3187381,-2.0358505,-0.661563,0.29886582,0.473726,3.370449
322,2026-05-11 16:16:54.396385,-0.3187381,-2.0358505,-0.661563,0.29886582,0.473726,3.370449
323,2026-05-11 16:16:54.399390,-0.3187381,-2.0358505,-0.661563,0.29886582,0.473726,3.370449
324,2026-05-11 16:16:54.402092,-0.3187381,-2.0358505,-0.661563,0.29886582,0.473726,3.370449
325,2026-05-11 16:16:54.404693,-0.3187381,-2.0358505,-0.661563,0.29886582,0.473726,3.370449
326,2026-05-11 16:16:54.407447,-0.3187381,-2.0358505,-0.661563,0.29886582,0.473726,3.370449
327,2026-05-11 16:16:54.410228,-0.3187381,-2.0358505,-0.661563,0.29886582,0.473726,3.370449
328,2026-05-11 16:16:54.412975,-0.3187381,-2.0358505,-0.661563,0.29886582,0.473726,3.370449
329,2026-05-11 16:16:54.416086,-0.3187381,-2.0358505,-0.661563,0.29886582,0.473726,3.370449
330,2026-05-11 16:16:54.418783,-0.3187381,-2.0358505,-0.661563,0.29886582,0.473726,3.370449
331,2026-05-11 16:16:54.421355,-0.3187381,-2.0358505,-0.661563,0.29886582,0.473726,3.370449
332,2026-05-11 16:16:54.424118,-0.3187381,-2.0358505,-0.661563,0.29886582,0.473726,3.370449
333,2026-05-11 16:16:54.426756,-0.3187381,-2.0358505,-0.661563,0.29886582,0.473726,3.370449
334,2026-05-11 16:16:54.429322,-0.3187381,-2.0358505,-0.661563,0.29886582,0.473726,3.370449
335,2026-05-11 16:16:54.432330,-0.3187381,-2.0358505,-0.661563,0.29886582,0.473726,3.370449
336,2026-05-11 16:16:54.435031,-0.3187381,-2.0358505,-0.661563,0.29886582,0.473726,3.370449
337,2026-05-11 16:16:54.437606,-0.3187381,-2.0358505,-0.661563,0.29886582,0.473726,3.370449
338,2026-05-11 16:16:54.440281,-0.3187381,-2.0358505,-0.661563,0.29886582,0.473726,3.370449
339,2026-05-11 16:16:54.442843,-0.3187381,-2.0358505,-0.661563,0.29886582,0.473726,3.370449
340,2026-05-11 16:16:54.445379,-0.3187381,-2.0358505,-0.661563,0.29886582,0.473726,3.370449
341,2026-05-11 16:16:54.448009,-0.3187381,-2.0358505,-0.661563,0.29886582,0.473726,3.370449
342,2026-05-11 16:16:54.451040,-0.3187381,-2.0358505,-0.661563,0.29886582,0.473726,3.370449
343,2026-05-11 16:16:54.453761,-0.3187381,-2.0358505,-0.661563,0.29886582,0.473726,3.370449
344,2026-05-11 16:16:54.456390,-0.3187381,-2.0358505,-0.661563,0.29886582,0.473726,3.370449
345,2026-05-11 16:16:54.458946,-0.3187381,-2.0358505,-0.661563,0.29886582,0.473726,3.370449
346,2026-05-11 16:16:54.461491,-0.3187381,-2.0358505,-0.661563,0.29886582,0.473726,3.370449
347,2026-05-11 16:16:54.464017,-0.3187381,-2.0358505,-0.661563,0.29886582,0.473726,3.370449
348,2026-05-11 16:16:54.467291,-0.3187381,-2.0358505,-0.661563,0.29886582,0.473726,3.370449
349,2026-05-11 16:16:54.470003,-0.3187381,-2.0358505,-0.661563,0.29886582,0.473726,3.370449
350,2026-05-11 16:16:54.472595,-0.3187381,-2.0358505,-0.661563,0.29886582,0.473726,3.370449
351,2026-05-11 16:16:54.475276,-0.3187381,-2.0358505,-0.661563,0.29886582,0.473726,3.370449
352,2026-05-11 16:16:54.477838,-0.3187381,-2.0358505,-0.661563,0.29886582,0.473726,3.370449
353,2026-05-11 16:16:54.480534,-0.3187381,-2.0358505,-0.661563,0.29886582,0.473726,3.370449
354,2026-05-11 16:16:54.483316,-0.3187381,-2.0358505,-0.661563,0.29886582,0.473726,3.370449
355,2026-05-11 16:16:54.486670,-0.3187381,-2.0358505,-0.661563,0.29886582,0.473726,3.370449
356,2026-05-11 16:16:54.489422,-0.3187381,-2.0358505,-0.661563,0.29886582,0.473726,3.370449
357,2026-05-11 16:16:54.492039,-0.3187381,-2.0358505,-0.661563,0.29886582,0.473726,3.370449
358,2026-05-11 16:16:54.494649,-0.3187381,-2.0358505,-0.661563,0.29886582,0.473726,3.370449
359,2026-05-11 16:16:54.497311,-0.3187381,-2.0358505,-0.661563,0.29886582,0.473726,3.370449
360,2026-05-11 16:16:54.500432,-0.3187381,-2.0358505,-0.661563,0.29886582,0.473726,3.370449
361,2026-05-11 16:16:54.503300,-0.3187381,-2.0358505,-0.661563,0.29886582,0.473726,3.370449
362,2026-05-11 16:16:54.505893,-0.3187381,-2.0358505,-0.661563,0.29886582,0.473726,3.370449
363,2026-05-11 16:16:54.508625,-0.3187381,-2.0358505,-0.661563,-0.3791946,0.5757405,3.734372
364,2026-05-11 16:16:54.511278,-0.3187381,-2.0358505,-0.661563,-0.3791946,0.5757405,3.734372
365,2026-05-11 16:16:54.513991,-0.3187381,-2.0358505,-0.661563,-0.3791946,0.5757405,3.734372
366,2026-05-11 16:16:54.516931,-0.3187381,-2.0358505,-0.661563,-0.3791946,0.5757405,3.734372
367,2026-05-11 16:16:54.520404,-0.3187381,-2.0358505,-0.661563,-0.3791946,0.5757405,3.734372
368,2026-05-11 16:16:54.523133,-0.3187381,-2.0358505,-0.661563,-0.3791946,0.5757405,3.734372
369,2026-05-11 16:16:54.525835,-0.3187381,-2.0358505,-0.661563,-0.3791946,0.5757405,3.734372
370,2026-05-11 16:16:54.528407,-0.3187381,-2.0358505,-0.661563,-0.3791946,0.5757405,3.734372
371,2026-05-11 16:16:54.531051,-0.35172784,-1.8820001,-0.12378771,-0.3791946,0.5757405,3.734372
372,2026-05-11 16:16:54.533979,-0.35172784,-1.8820001,-0.12378771,-0.7817548,0.9166033,4.1292963
373,2026-05-11 16:16:54.537266,-0.35172784,-1.8820001,-0.12378771,-0.7817548,0.9166033,4.1292963
374,2026-05-11 16:16:54.540024,-0.35172784,-1.8820001,-0.12378771,-0.7817548,0.9166033,4.1292963
375,2026-05-11 16:16:54.542678,-0.35172784,-1.8820001,-0.12378771,-0.7817548,0.9166033,4.1292963
376,2026-05-11 16:16:54.545416,-0.35172784,-1.8820001,-0.12378771,-0.7817548,0.9166033,4.1292963
377,2026-05-11 16:16:54.548168,-0.35172784,-1.8820001,-0.12378771,-0.7817548,0.9166033,4.1292963
378,2026-05-11 16:16:54.551331,-0.35172784,-1.8820001,-0.12378771,-0.7817548,0.9166033,4.1292963
379,2026-05-11 16:16:54.554613,-0.35172784,-1.8820001,-0.12378771,-0.7817548,0.9166033,4.1292963
380,2026-05-11 16:16:54.557322,-0.35172784,-1.8820001,-0.12378771,-0.7817548,0.9166033,4.1292963
381,2026-05-11 16:16:54.560029,-0.35172784,-1.8820001,-0.12378771,-0.7817548,0.9166033,4.1292963
382,2026-05-11 16:16:54.562743,-0.35172784,-1.8820001,-0.12378771,-0.7817548,0.9166033,4.1292963
383,2026-05-11 16:16:54.565811,-0.35172784,-1.8820001,-0.12378771,-0.7817548,0.9166033,4.1292963
384,2026-05-11 16:16:54.568798,-0.29672462,-1.826692,0.3591063,-0.7817548,0.9166033,4.1292963
385,2026-05-11 16:16:54.571377,-0.29672462,-1.826692,0.3591063,-0.7817548,0.9166033,4.1292963
386,2026-05-11 16:16:54.574201,-0.29672462,-1.826692,0.3591063,-0.7817548,0.9166033,4.1292963
387,2026-05-11 16:16:54.576822,-0.29672462,-1.826692,0.3591063,-0.7817548,0.9166033,4.1292963
388,2026-05-11 16:16:54.579375,-0.29672462,-1.826692,0.3591063,-0.7817548,0.9166033,4.1292963
389,2026-05-11 16:16:54.582390,-0.29672462,-1.826692,0.3591063,-0.7817548,0.9166033,4.1292963
390,2026-05-11 16:16:54.585220,-0.29672462,-1.826692,0.3591063,-0.7817548,0.9166033,4.1292963
391,2026-05-11 16:16:54.587790,-0.29672462,-1.826692,0.3591063,-0.7817548,0.9166033,4.1292963
392,2026-05-11 16:16:54.590466,-0.29672462,-1.826692,0.3591063,-0.7817548,0.9166033,4.1292963
393,2026-05-11 16:16:54.593054,-0.29672462,-1.826692,0.3591063,-0.7817548,0.9166033,4.1292963
394,2026-05-11 16:16:54.595699,-0.29672462,-1.826692,0.3591063,-0.7817548,0.9166033,4.1292963
395,2026-05-11 16:16:54.598518,-0.29672462,-1.826692,0.3591063,-0.7817548,0.9166033,4.1292963
396,2026-05-11 16:16:54.601560,-0.29672462,-1.826692,0.3591063,-0.7817548,0.9166033,4.1292963
397,2026-05-11 16:16:54.604163,-0.29672462,-1.826692,0.3591063,-0.7817548,0.9166033,4.1292963
398,2026-05-11 16:16:54.606768,-0.29672462,-1.826692,0.3591063,-0.7817548,0.9166033,4.1292963
399,2026-05-11 16:16:54.609436,-0.29672462,-1.826692,0.3591063,-0.7817548,0.9166033,4.1292963
400,2026-05-11 16:16:54.611993,-0.29672462,-1.826692,0.3591063,-0.7817548,0.9166033,4.1292963
401,2026-05-11 16:16:54.614672,-0.29672462,-1.826692,0.3591063,-0.7817548,0.9166033,4.1292963
402,2026-05-11 16:16:54.617609,-0.29672462,-1.826692,0.3591063,-0.7817548,0.9166033,4.1292963
403,2026-05-11 16:16:54.620425,-0.29672462,-1.826692,0.3591063,-0.7817548,0.9166033,4.1292963
404,2026-05-11 16:16:54.623194,-0.29672462,-1.826692,0.3591063,-0.7817548,0.9166033,4.1292963
405,2026-05-11 16:16:54.625849,-0.29672462,-1.826692,0.3591063,-0.7817548,0.9166033,4.1292963
406,2026-05-11 16:16:54.628548,-0.29672462,-1.826692,0.3591063,-0.7817548,0.9166033,4.1292963
407,2026-05-11 16:16:54.631349,-0.29672462,-1.826692,0.3591063,-0.7817548,0.9166033,4.1292963
408,2026-05-11 16:16:54.634375,-0.29672462,-1.826692,0.3591063,-0.7817548,0.9166033,4.1292963
409,2026-05-11 16:16:54.637027,-0.29672462,-1.826692,0.3591063,-0.7817548,0.9166033,4.1292963
410,2026-05-11 16:16:54.639764,-0.29672462,-1.826692,0.3591063,-0.7817548,0.9166033,4.1292963
411,2026-05-11 16:16:54.642373,-0.29672462,-1.826692,0.3591063,-0.7817548,0.9166033,4.1292963
412,2026-05-11 16:16:54.645169,-0.29672462,-1.826692,0.3591063,-0.7817548,0.9166033,4.1292963
413,2026-05-11 16:16:54.647776,-0.29672462,-1.826692,0.3591063,-0.7817548,0.9166033,4.1292963
414,2026-05-11 16:16:54.650806,-0.29672462,-1.826692,0.3591063,-0.7817548,0.9166033,4.1292963
415,2026-05-11 16:16:54.653512,-0.29672462,-1.826692,0.3591063,-0.7817548,0.9166033,4.1292963
416,2026-05-11 16:16:54.656062,-0.29672462,-1.826692,0.3591063,-0.7817548,0.9166033,4.1292963
417,2026-05-11 16:16:54.658630,-0.29672462,-1.826692,0.3591063,-0.7817548,0.9166033,4.1292963
418,2026-05-11 16:16:54.661360,-0.29672462,-1.826692,0.3591063,-0.7817548,0.9166033,4.1292963
419,2026-05-11 16:16:54.663918,-0.29672462,-1.826692,0.3591063,-0.7817548,0.9166033,4.1292963
420,2026-05-11 16:16:54.666941,-0.29672462,-1.826692,0.3591063,-0.7817548,0.9166033,4.1292963
421,2026-05-11 16:16:54.669606,-0.29672462,-1.826692,0.3591063,-0.7817548,0.9166033,4.1292963
422,2026-05-11 16:16:54.672194,-0.29672462,-1.826692,0.3591063,-0.7817548,0.9166033,4.1292963
423,2026-05-11 16:16:54.674926,-0.29672462,-1.826692,0.3591063,-0.7817548,0.9166033,4.1292963
424,2026-05-11 16:16:54.677492,-0.29672462,-1.826692,0.3591063,-0.7817548,0.9166033,4.1292963
425,2026-05-11 16:16:54.680056,-0.29672462,-1.826692,0.3591063,-0.7817548,0.9166033,4.1292963
426,2026-05-11 16:16:54.683070,-0.29672462,-1.826692,0.3591063,-0.7817548,0.9166033,4.1292963
427,2026-05-11 16:16:54.685805,-0.29672462,-1.826692,0.3591063,-0.7817548,0.9166033,4.1292963
428,2026-05-11 16:16:54.688503,-0.29672462,-1.826692,0.3591063,-0.7817548,0.9166033,4.1292963
429,2026-05-11 16:16:54.691136,-0.29672462,-1.826692,0.3591063,-0.7817548,0.9166033,4.1292963
430,2026-05-11 16:16:54.693682,-0.29672462,-1.826692,0.3591063,-0.7817548,0.9166033,4.1292963
431,2026-05-11 16:16:54.696247,-0.29672462,-1.826692,0.3591063,-0.7817548,0.9166033,4.1292963
432,2026-05-11 16:16:54.699331,-0.29672462,-1.826692,0.3591063,-0.7817548,0.9166033,4.1292963
433,2026-05-11 16:16:54.701992,-0.29672462,-1.826692,0.3591063,-0.7817548,0.9166033,4.1292963
434,2026-05-11 16:16:54.704539,-0.29672462,-1.826692,0.3591063,-0.7817548,0.9166033,4.1292963
435,2026-05-11 16:16:54.707131,-0.29672462,-1.826692,0.3591063,-0.7817548,0.9166033,4.1292963
436,2026-05-11 16:16:54.709665,-0.29672462,-1.826692,0.3591063,-0.7817548,0.9166033,4.1292963
437,2026-05-11 16:16:54.712394,-0.29672462,-1.826692,0.3591063,-0.7817548,0.9166033,4.1292963
438,2026-05-11 16:16:54.715178,-0.29672462,-1.826692,0.3591063,-0.7817548,0.9166033,4.1292963
439,2026-05-11 16:16:54.718309,-0.29672462,-1.826692,0.3591063,-0.7817548,0.9166033,4.1292963
440,2026-05-11 16:16:54.720919,-0.29672462,-1.826692,0.3591063,-0.7817548,0.9166033,4.1292963
441,2026-05-11 16:16:54.723623,-0.29672462,-1.826692,0.3591063,-0.7817548,0.9166033,4.1292963
442,2026-05-11 16:16:54.726199,-0.29672462,-1.826692,0.3591063,-0.7817548,0.9166033,4.1292963
443,2026-05-11 16:16:54.728999,-0.29672462,-1.826692,0.3591063,-0.7817548,0.9166033,4.1292963
444,2026-05-11 16:16:54.731927,-0.29568797,-1.8135815,0.5305188,-0.7817548,0.9166033,4.1292963
445,2026-05-11 16:16:54.734811,-0.29568797,-1.8135815,0.5305188,-0.7817548,0.9166033,4.1292963
446,2026-05-11 16:16:54.737471,-0.29568797,-1.8135815,0.5305188,-0.7817548,0.9166033,4.1292963
447,2026-05-11 16:16:54.740157,-0.29568797,-1.8135815,0.5305188,-0.7817548,0.9166033,4.1292963
448,2026-05-11 16:16:54.742758,-0.29568797,-1.8135815,0.5305188,-0.7817548,0.9166033,4.1292963
449,2026-05-11 16:16:54.745291,-0.29568797,-1.8135815,0.5305188,-0.7817548,0.9166033,4.1292963
450,2026-05-11 16:16:54.748037,-0.29568797,-1.8135815,0.5305188,-0.7817548,0.9166033,4.1292963
451,2026-05-11 16:16:54.751064,-0.29568797,-1.8135815,0.5305188,-0.7817548,0.9166033,4.1292963
452,2026-05-11 16:16:54.753774,-0.29568797,-1.8135815,0.5305188,-0.7817548,0.9166033,4.1292963
453,2026-05-11 16:16:54.756505,-0.29568797,-1.8135815,0.5305188,-0.7817548,0.9166033,4.1292963
454,2026-05-11 16:16:54.759128,-0.29568797,-1.8135815,0.5305188,-0.7817548,0.9166033,4.1292963
455,2026-05-11 16:16:54.761741,-0.29568797,-1.8135815,0.5305188,-0.7817548,0.9166033,4.1292963
456,2026-05-11 16:16:54.764275,-0.29568797,-1.8135815,0.5305188,-0.7817548,0.9166033,4.1292963
457,2026-05-11 16:16:54.767305,-0.29568797,-1.8135815,0.5305188,-0.7817548,0.9166033,4.1292963
458,2026-05-11 16:16:54.769948,-0.29568797,-1.8135815,0.5305188,-0.7817548,0.9166033,4.1292963
459,2026-05-11 16:16:54.772507,-0.29568797,-1.8135815,0.5305188,-0.7817548,0.9166033,4.1292963
460,2026-05-11 16:16:54.775245,-0.29568797,-1.8135815,0.5305188,-0.7817548,0.9166033,4.1292963
461,2026-05-11 16:16:54.777939,-0.29568797,-1.8135815,0.5305188,-0.7817548,0.9166033,4.1292963
462,2026-05-11 16:16:54.780566,-0.29568797,-1.8135815,0.5305188,-0.7817548,0.9166033,4.1292963
463,2026-05-11 16:16:54.783613,-0.29568797,-1.8135815,0.5305188,-0.7817548,0.9166033,4.1292963
464,2026-05-11 16:16:54.786339,-0.29568797,-1.8135815,0.5305188,-0.7817548,0.9166033,4.1292963
465,2026-05-11 16:16:54.788906,-0.29568797,-1.8135815,0.5305188,-0.7817548,0.9166033,4.1292963
466,2026-05-11 16:16:54.791626,-0.29568797,-1.8135815,0.5305188,-0.7817548,0.9166033,4.1292963
467,2026-05-11 16:16:54.794154,-0.29568797,-1.8135815,0.5305188,-0.7817548,0.9166033,4.1292963
468,2026-05-11 16:16:54.796701,-0.29568797,-1.8135815,0.5305188,-0.7817548,0.9166033,4.1292963
469,2026-05-11 16:16:54.799550,-0.29568797,-1.8135815,0.5305188,-0.7817548,0.9166033,4.1292963
470,2026-05-11 16:16:54.802397,-0.29568797,-1.8135815,0.5305188,-0.99372506,1.4307991,4.380362
471,2026-05-11 16:16:54.805170,-0.29568797,-1.8135815,0.5305188,-0.99372506,1.4307991,4.380362
472,2026-05-11 16:16:54.807763,-0.29568797,-1.8135815,0.5305188,-0.99372506,1.4307991,4.380362
473,2026-05-11 16:16:54.810609,-0.29568797,-1.8135815,0.5305188,-0.99372506,1.4307991,4.380362
474,2026-05-11 16:16:54.813310,-0.29568797,-1.8135815,0.5305188,-0.99372506,1.4307991,4.380362
475,2026-05-11 16:16:54.816431,-0.29568797,-1.8135815,0.5305188,-0.99372506,1.4307991,4.380362
476,2026-05-11 16:16:54.819254,-0.29568797,-1.8135815,0.5305188,-0.99372506,1.4307991,4.380362
477,2026-05-11 16:16:54.821996,-0.29568797,-1.8135815,0.5305188,-0.99372506,1.4307991,4.380362
478,2026-05-11 16:16:54.824588,-0.29568797,-1.8135815,0.5305188,-0.99372506,1.4307991,4.380362
479,2026-05-11 16:16:54.827327,-0.29568797,-1.8135815,0.5305188,-0.99372506,1.4307991,4.380362
480,2026-05-11 16:16:54.829949,-0.2968466,-1.6116184,0.5563739,-1.6557503,2.6175575,5.083468
481,2026-05-11 16:16:54.833135,-0.2968466,-1.6116184,0.5563739,-1.6557503,2.6175575,5.083468
482,2026-05-11 16:16:54.836032,-0.2968466,-1.6116184,0.5563739,-1.6557503,2.6175575,5.083468
483,2026-05-11 16:16:54.838830,-0.2968466,-1.6116184,0.5563739,-1.6557503,2.6175575,5.083468
484,2026-05-11 16:16:54.841437,-0.2968466,-1.6116184,0.5563739,-1.6557503,2.6175575,5.083468
485,2026-05-11 16:16:54.844278,-0.2968466,-1.6116184,0.5563739,-1.6557503,2.6175575,5.083468
486,2026-05-11 16:16:54.846900,-0.2968466,-1.6116184,0.5563739,-1.6557503,2.6175575,5.083468
487,2026-05-11 16:16:54.850108,-0.2968466,-1.6116184,0.5563739,-1.6557503,2.6175575,5.083468
488,2026-05-11 16:16:54.852831,-0.2968466,-1.6116184,0.5563739,-1.6557503,2.6175575,5.083468
489,2026-05-11 16:16:54.855398,-0.2968466,-1.6116184,0.5563739,-1.6557503,2.6175575,5.083468
490,2026-05-11 16:16:54.858145,-0.2968466,-1.6116184,0.5563739,-1.6557503,2.6175575,5.083468
491,2026-05-11 16:16:54.860705,-0.2968466,-1.6116184,0.5563739,-1.6557503,2.6175575,5.083468
492,2026-05-11 16:16:54.863556,-0.2968466,-1.6116184,0.5563739,-2.6621506,3.5167513,5.7160187
493,2026-05-11 16:16:54.866651,-0.2968466,-1.6116184,0.5563739,-2.6621506,3.5167513,5.7160187
494,2026-05-11 16:16:54.869439,-0.2968466,-1.6116184,0.5563739,-2.6621506,3.5167513,5.7160187
495,2026-05-11 16:16:54.872018,-0.2968466,-1.6116184,0.5563739,-2.6621506,3.5167513,5.7160187
496,2026-05-11 16:16:54.874835,-0.029026084,-1.3560548,0.52984804,-2.6621506,3.5167513,5.7160187
497,2026-05-11 16:16:54.877547,0.18153499,-1.1483598,0.60284007,-3.8496728,4.3333254,6.1075835
498,2026-05-11 16:16:54.880323,0.18153499,-1.1483598,0.60284007,-3.8496728,4.3333254,6.1075835
499,2026-05-11 16:16:54.883317,0.18153499,-1.1483598,0.60284007,-3.8496728,4.3333254,6.1075835
500,2026-05-11 16:16:54.886033,0.18153499,-1.1483598,0.60284007,-3.8496728,4.3333254,6.1075835
501,2026-05-11 16:16:54.888740,0.18153499,-1.1483598,0.60284007,-3.8496728,4.3333254,6.1075835
502,2026-05-11 16:16:54.891332,0.18153499,-1.1483598,0.60284007,-3.8496728,4.3333254,6.1075835
503,2026-05-11 16:16:54.893950,0.18153499,-1.1483598,0.60284007,-3.8496728,4.3333254,6.1075835
504,2026-05-11 16:16:54.896522,0.18153499,-1.1483598,0.60284007,-3.8496728,4.3333254,6.1075835
505,2026-05-11 16:16:54.899540,0.18153499,-1.1483598,0.60284007,-3.8496728,4.3333254,6.1075835
506,2026-05-11 16:16:54.902397,0.36898494,-0.84523225,0.70418745,-3.8496728,4.3333254,6.1075835
507,2026-05-11 16:16:54.905004,0.36898494,-0.84523225,0.70418745,-3.8496728,4.3333254,6.1075835
508,2026-05-11 16:16:54.907611,0.36898494,-0.84523225,0.70418745,-3.8496728,4.3333254,6.1075835
509,2026-05-11 16:16:54.910332,0.36898494,-0.84523225,0.70418745,-3.8496728,4.3333254,6.1075835
510,2026-05-11 16:16:54.913177,0.55253226,-0.6705269,0.8514522,-5.0651417,4.8734827,6.4024787
511,2026-05-11 16:16:54.916241,0.55253226,-0.6705269,0.8514522,-5.0651417,4.8734827,6.4024787
512,2026-05-11 16:16:54.919150,0.55253226,-0.6705269,0.8514522,-5.8314724,5.0251303,6.5154886
513,2026-05-11 16:16:54.921849,0.55253226,-0.6705269,0.8514522,-5.8314724,5.0251303,6.5154886
514,2026-05-11 16:16:54.924536,0.55253226,-0.6705269,0.8514522,-5.8314724,5.0251303,6.5154886
515,2026-05-11 16:16:54.927342,0.55253226,-0.6705269,0.8514522,-5.8314724,5.0251303,6.5154886
516,2026-05-11 16:16:54.929956,0.55253226,-0.6705269,0.8514522,-5.8314724,5.0251303,6.5154886
517,2026-05-11 16:16:54.933039,0.55253226,-0.6705269,0.8514522,-5.8314724,5.0251303,6.5154886
518,2026-05-11 16:16:54.935755,0.55253226,-0.6705269,0.8514522,-5.8314724,5.0251303,6.5154886
519,2026-05-11 16:16:54.938337,0.55253226,-0.6705269,0.8514522,-5.8314724,5.0251303,6.5154886
520,2026-05-11 16:16:54.941032,0.55253226,-0.6705269,0.8514522,-5.8314724,5.0251303,6.5154886
521,2026-05-11 16:16:54.943603,0.55253226,-0.6705269,0.8514522,-5.8314724,5.0251303,6.5154886
522,2026-05-11 16:16:54.946159,0.55253226,-0.6705269,0.8514522,-5.8314724,5.0251303,6.5154886
523,2026-05-11 16:16:54.949244,0.55253226,-0.6705269,0.8514522,-5.8314724,5.0251303,6.5154886
524,2026-05-11 16:16:54.952033,0.55253226,-0.6705269,0.8514522,-5.8314724,5.0251303,6.5154886
525,2026-05-11 16:16:54.954639,0.55253226,-0.6705269,0.8514522,-5.8314724,5.0251303,6.5154886
526,2026-05-11 16:16:54.957279,0.55253226,-0.6705269,0.8514522,-5.8314724,5.0251303,6.5154886
527,2026-05-11 16:16:54.959860,0.55253226,-0.6705269,0.8514522,-5.8314724,5.0251303,6.5154886
528,2026-05-11 16:16:54.962447,0.55253226,-0.6705269,0.8514522,-5.8314724,5.0251303,6.5154886
529,2026-05-11 16:16:54.965647,0.8495008,-0.5452757,1.3505666,-5.8314724,5.0251303,6.5154886
530,2026-05-11 16:16:54.968542,0.8495008,-0.5452757,1.3505666,-5.8314724,5.0251303,6.5154886
531,2026-05-11 16:16:54.971317,0.8495008,-0.5452757,1.3505666,-7.155981,5.020854,6.531677
532,2026-05-11 16:16:54.974055,0.8495008,-0.5452757,1.3505666,-7.155981,5.020854,6.531677
533,2026-05-11 16:16:54.976665,0.8495008,-0.5452757,1.3505666,-7.155981,5.020854,6.531677
534,2026-05-11 16:16:54.979422,0.8495008,-0.5452757,1.3505666,-7.155981,5.020854,6.531677
535,2026-05-11 16:16:54.982520,0.8495008,-0.5452757,1.3505666,-7.155981,5.020854,6.531677
536,2026-05-11 16:16:54.985315,0.8495008,-0.5452757,1.3505666,-7.155981,5.020854,6.531677
537,2026-05-11 16:16:54.987950,0.88194174,-0.5305188,1.4558775,-7.155981,5.020854,6.531677
538,2026-05-11 16:16:54.990649,0.88194174,-0.5305188,1.4558775,-7.155981,5.020854,6.531677
539,2026-05-11 16:16:54.993232,0.88194174,-0.5305188,1.4558775,-7.155981,5.020854,6.531677
540,2026-05-11 16:16:54.995853,0.88194174,-0.5305188,1.4558775,-7.155981,5.020854,6.531677
541,2026-05-11 16:16:54.999036,0.88194174,-0.5305188,1.4558775,-7.155981,5.020854,6.531677
542,2026-05-11 16:16:55.002029,0.88194174,-0.5305188,1.4558775,-7.155981,5.020854,6.531677
543,2026-05-11 16:16:55.004647,0.88194174,-0.5305188,1.4558775,-7.155981,5.020854,6.531677
544,2026-05-11 16:16:55.007227,0.88194174,-0.5305188,1.4558775,-7.155981,5.020854,6.531677
545,2026-05-11 16:16:55.009964,0.88194174,-0.5305188,1.4558775,-7.155981,5.020854,6.531677
546,2026-05-11 16:16:55.012545,0.88194174,-0.5305188,1.4558775,-7.155981,5.020854,6.531677
547,2026-05-11 16:16:55.015422,0.88194174,-0.5305188,1.4558775,-7.155981,5.020854,6.531677
548,2026-05-11 16:16:55.018334,0.88194174,-0.5305188,1.4558775,-7.155981,5.020854,6.531677
549,2026-05-11 16:16:55.020902,0.88194174,-0.5305188,1.4558775,-7.155981,5.020854,6.531677
550,2026-05-11 16:16:55.023776,0.88194174,-0.5305188,1.4558775,-7.155981,5.020854,6.531677
551,2026-05-11 16:16:55.026476,0.88194174,-0.5305188,1.4558775,-7.3180127,4.998405,6.525568
552,2026-05-11 16:16:55.029077,0.88194174,-0.5305188,1.4558775,-7.3180127,4.998405,6.525568
553,2026-05-11 16:16:55.032139,0.88194174,-0.5305188,1.4558775,-7.3180127,4.998405,6.525568
554,2026-05-11 16:16:55.034859,0.88194174,-0.5305188,1.4558775,-7.3180127,4.998405,6.525568
555,2026-05-11 16:16:55.037437,0.88194174,-0.5305188,1.4558775,-7.3180127,4.998405,6.525568
556,2026-05-11 16:16:55.040024,0.88194174,-0.5305188,1.4558775,-7.3180127,4.998405,6.525568
557,2026-05-11 16:16:55.042758,1.2319622,-0.34355664,2.2109828,-7.3180127,4.998405,6.525568
558,2026-05-11 16:16:55.045480,1.2319622,-0.34355664,2.2109828,-7.3180127,4.998405,6.525568
559,2026-05-11 16:16:55.048725,1.2319622,-0.34355664,2.2109828,-7.3180127,4.998405,6.525568
560,2026-05-11 16:16:55.051472,1.2319622,-0.34355664,2.2109828,-7.3180127,4.998405,6.525568
561,2026-05-11 16:16:55.054070,1.2319622,-0.34355664,2.2109828,-7.3180127,4.998405,6.525568
562,2026-05-11 16:16:55.056681,1.2319622,-0.34355664,2.2109828,-7.3180127,4.998405,6.525568
563,2026-05-11 16:16:55.059309,1.2319622,-0.34355664,2.2109828,-7.3180127,4.998405,6.525568
564,2026-05-11 16:16:55.062286,1.2319622,-0.34355664,2.2109828,-7.3180127,4.998405,6.525568
565,2026-05-11 16:16:55.065063,1.2319622,-0.34355664,2.2109828,-7.3180127,4.998405,6.525568
566,2026-05-11 16:16:55.068270,1.2319622,-0.34355664,2.2109828,-7.3180127,4.998405,6.525568
567,2026-05-11 16:16:55.070988,1.2319622,-0.34355664,2.2109828,-7.3180127,4.998405,6.525568
568,2026-05-11 16:16:55.073749,1.2319622,-0.34355664,2.2109828,-7.3180127,4.998405,6.525568
569,2026-05-11 16:16:55.076412,1.2319622,-0.34355664,2.2109828,-7.3180127,4.998405,6.525568
570,2026-05-11 16:16:55.079014,1.2319622,-0.34355664,2.2109828,-7.3180127,4.998405,6.525568
571,2026-05-11 16:16:55.082279,1.2319622,-0.34355664,2.2109828,-7.3180127,4.998405,6.525568
572,2026-05-11 16:16:55.085334,1.2319622,-0.34355664,2.2109828,-7.3180127,4.998405,6.525568
573,2026-05-11 16:16:55.088061,1.2319622,-0.34355664,2.2109828,-7.3180127,4.998405,6.525568
574,2026-05-11 16:16:55.090912,1.2319622,-0.34355664,2.2109828,-7.8424406,4.4183884,6.485556
575,2026-05-11 16:16:55.093556,1.2319622,-0.34355664,2.2109828,-7.8424406,4.4183884,6.485556
576,2026-05-11 16:16:55.096166,1.2319622,-0.34355664,2.2109828,-7.8424406,4.4183884,6.485556
577,2026-05-11 16:16:55.099605,1.2319622,-0.34355664,2.2109828,-7.8424406,4.4183884,6.485556
578,2026-05-11 16:16:55.102363,1.2319622,-0.34355664,2.2109828,-7.8424406,4.4183884,6.485556
579,2026-05-11 16:16:55.104985,1.2319622,-0.34355664,2.2109828,-7.8424406,4.4183884,6.485556
580,2026-05-11 16:16:55.107546,1.2319622,-0.34355664,2.2109828,-7.8424406,4.4183884,6.485556
581,2026-05-11 16:16:55.110047,1.2319622,-0.34355664,2.2109828,-7.8424406,4.4183884,6.485556
582,2026-05-11 16:16:55.112692,1.2319622,-0.34355664,2.2109828,-7.8424406,4.4183884,6.485556
583,2026-05-11 16:16:55.116111,1.2319622,-0.34355664,2.2109828,-7.8424406,4.4183884,6.485556
584,2026-05-11 16:16:55.118997,1.2319622,-0.34355664,2.2109828,-7.8424406,4.4183884,6.485556
585,2026-05-11 16:16:55.121560,1.2319622,-0.34355664,2.2109828,-7.8424406,4.4183884,6.485556
586,2026-05-11 16:16:55.124142,1.2319622,-0.34355664,2.2109828,-7.8424406,4.4183884,6.485556
587,2026-05-11 16:16:55.126854,1.2319622,-0.34355664,2.2109828,-7.8424406,4.4183884,6.485556
588,2026-05-11 16:16:55.129387,1.2319622,-0.34355664,2.2109828,-7.8424406,4.4183884,6.485556
589,2026-05-11 16:16:55.132394,1.2319622,-0.34355664,2.2109828,-7.8424406,4.4183884,6.485556
590,2026-05-11 16:16:55.135242,1.2319622,-0.34355664,2.2109828,-7.8424406,4.4183884,6.485556
591,2026-05-11 16:16:55.137857,1.2319622,-0.34355664,2.2109828,-7.8424406,4.4183884,6.485556
592,2026-05-11 16:16:55.140493,1.2319622,-0.34355664,2.2109828,-7.8424406,4.4183884,6.485556
593,2026-05-11 16:16:55.143062,1.2319622,-0.34355664,2.2109828,-7.8424406,4.4183884,6.485556
594,2026-05-11 16:16:55.145826,1.2319622,-0.34355664,2.2109828,-7.8424406,4.4183884,6.485556
595,2026-05-11 16:16:55.148876,1.2319622,-0.34355664,2.2109828,-7.8424406,4.4183884,6.485556
596,2026-05-11 16:16:55.151735,1.2319622,-0.34355664,2.2109828,-7.8424406,4.4183884,6.485556
597,2026-05-11 16:16:55.154269,1.2319622,-0.34355664,2.2109828,-7.8424406,4.4183884,6.485556
598,2026-05-11 16:16:55.156942,1.2319622,-0.34355664,2.2109828,-7.8424406,4.4183884,6.485556
599,2026-05-11 16:16:55.159527,1.2319622,-0.34355664,2.2109828,-7.8424406,4.4183884,6.485556
600,2026-05-11 16:16:55.162076,1.2319622,-0.34355664,2.2109828,-7.8424406,4.4183884,6.485556
601,2026-05-11 16:16:55.165090,1.2319622,-0.34355664,2.2109828,-7.472256,3.7546833,6.3439884
602,2026-05-11 16:16:55.167793,1.2319622,-0.34355664,2.2109828,-7.472256,3.7546833,6.3439884
603,2026-05-11 16:16:55.170418,1.2319622,-0.34355664,2.2109828,-7.472256,3.7546833,6.3439884
604,2026-05-11 16:16:55.173225,1.2319622,-0.34355664,2.2109828,-7.472256,3.7546833,6.3439884
605,2026-05-11 16:16:55.175897,1.2319622,-0.34355664,2.2109828,-7.472256,3.7546833,6.3439884
606,2026-05-11 16:16:55.178508,1.2319622,-0.34355664,2.2109828,-7.472256,3.7546833,6.3439884
607,2026-05-11 16:16:55.181334,1.2319622,-0.34355664,2.2109828,-7.472256,3.7546833,6.3439884
608,2026-05-11 16:16:55.184426,1.3698361,-0.26483253,2.493621,-7.472256,3.7546833,6.3439884
609,2026-05-11 16:16:55.187202,1.3698361,-0.26483253,2.493621,-7.472256,3.7546833,6.3439884
610,2026-05-11 16:16:55.189804,1.3698361,-0.26483253,2.493621,-7.472256,3.7546833,6.3439884
611,2026-05-11 16:16:55.192550,1.3698361,-0.26483253,2.493621,-7.472256,3.7546833,6.3439884
612,2026-05-11 16:16:55.195132,1.3698361,-0.26483253,2.493621,-7.472256,3.7546833,6.3439884
613,2026-05-11 16:16:55.197940,1.3698361,-0.26483253,2.493621,-7.472256,3.7546833,6.3439884
614,2026-05-11 16:16:55.201157,1.3698361,-0.26483253,2.493621,-7.472256,3.7546833,6.3439884
615,2026-05-11 16:16:55.203867,1.3698361,-0.26483253,2.493621,-7.472256,3.7546833,6.3439884
616,2026-05-11 16:16:55.206480,1.3698361,-0.26483253,2.493621,-7.472256,3.7546833,6.3439884
617,2026-05-11 16:16:55.209280,1.3698361,-0.26483253,2.493621,-7.472256,3.7546833,6.3439884
618,2026-05-11 16:16:55.211871,1.3698361,-0.26483253,2.493621,-7.472256,3.7546833,6.3439884
619,2026-05-11 16:16:55.214601,1.3698361,-0.26483253,2.493621,-7.472256,3.7546833,6.3439884
620,2026-05-11 16:16:55.217805,1.3698361,-0.26483253,2.493621,-6.9408035,3.236975,6.3047404
621,2026-05-11 16:16:55.220507,1.3698361,-0.26483253,2.493621,-6.9408035,3.236975,6.3047404
622,2026-05-11 16:16:55.223280,1.3944715,-0.21293926,2.5941148,-6.0364175,2.5156958,6.340934
623,2026-05-11 16:16:55.226043,1.3944715,-0.21293926,2.5941148,-6.0364175,2.5156958,6.340934
624,2026-05-11 16:16:55.228652,1.3944715,-0.21293926,2.5941148,-6.0364175,2.5156958,6.340934
625,2026-05-11 16:16:55.231220,1.3944715,-0.21293926,2.5941148,-6.0364175,2.5156958,6.340934
626,2026-05-11 16:16:55.234523,1.3944715,-0.21293926,2.5941148,-6.0364175,2.5156958,6.340934
627,2026-05-11 16:16:55.237212,1.3944715,-0.21293926,2.5941148,-6.0364175,2.5156958,6.340934
628,2026-05-11 16:16:55.239935,1.3944715,-0.21293926,2.5941148,-6.0364175,2.5156958,6.340934
629,2026-05-11 16:16:55.242540,1.3944715,-0.21293926,2.5941148,-6.0364175,2.5156958,6.340934
630,2026-05-11 16:16:55.245245,1.3944715,-0.21293926,2.5941148,-6.0364175,2.5156958,6.340934
631,2026-05-11 16:16:55.248070,1.3944715,-0.21293926,2.5941148,-6.0364175,2.5156958,6.340934
632,2026-05-11 16:16:55.251334,1.3944715,-0.21293926,2.5941148,-6.0364175,2.5156958,6.340934
633,2026-05-11 16:16:55.253962,1.3944715,-0.21293926,2.5941148,-6.0364175,2.5156958,6.340934
634,2026-05-11 16:16:55.256831,1.3944715,-0.21293926,2.5941148,-6.0364175,2.5156958,6.340934
635,2026-05-11 16:16:55.259424,1.3944715,-0.21293926,2.5941148,-6.0364175,2.5156958,6.340934
636,2026-05-11 16:16:55.262080,1.3944715,-0.21293926,2.5941148,-6.0364175,2.5156958,6.340934
637,2026-05-11 16:16:55.264756,1.3944715,-0.21293926,2.5941148,-6.0364175,2.5156958,6.340934
638,2026-05-11 16:16:55.267923,1.3944715,-0.21293926,2.5941148,-6.0364175,2.5156958,6.340934
639,2026-05-11 16:16:55.270650,1.3944715,-0.21293926,2.5941148,-6.0364175,2.5156958,6.340934
640,2026-05-11 16:16:55.273221,1.3944715,-0.21293926,2.5941148,-6.0364175,2.5156958,6.340934
641,2026-05-11 16:16:55.276058,1.5849705,0.013659334,2.6724122,-6.0364175,2.5156958,6.340934
642,2026-05-11 16:16:55.278751,1.5849705,0.013659334,2.6724122,-6.0364175,2.5156958,6.340934
643,2026-05-11 16:16:55.281392,1.5849705,0.013659334,2.6724122,-6.0364175,2.5156958,6.340934
644,2026-05-11 16:16:55.284779,1.5849705,0.013659334,2.6724122,-6.0364175,2.5156958,6.340934
645,2026-05-11 16:16:55.287463,1.7811406,0.17604686,2.6309462,-5.296507,2.1323779,6.1732516
646,2026-05-11 16:16:55.290249,1.7811406,0.17604686,2.6309462,-5.296507,2.1323779,6.1732516
647,2026-05-11 16:16:55.292887,1.7811406,0.17604686,2.6309462,-5.296507,2.1323779,6.1732516
648,2026-05-11 16:16:55.295582,1.7811406,0.17604686,2.6309462,-5.296507,2.1323779,6.1732516
649,2026-05-11 16:16:55.298498,1.9165143,0.28660208,2.5133173,-5.296507,2.1323779,6.1732516
650,2026-05-11 16:16:55.301650,1.9165143,0.28660208,2.5133173,-5.296507,2.1323779,6.1732516
651,2026-05-11 16:16:55.304568,1.9165143,0.28660208,2.5133173,-4.778646,2.1111503,5.8556013
652,2026-05-11 16:16:55.307194,1.9165143,0.28660208,2.5133173,-4.778646,2.1111503,5.8556013
653,2026-05-11 16:16:55.309977,1.9165143,0.28660208,2.5133173,-4.778646,2.1111503,5.8556013
654,2026-05-11 16:16:55.312726,1.9165143,0.28660208,2.5133173,-4.778646,2.1111503,5.8556013
655,2026-05-11 16:16:55.315679,1.9165143,0.28660208,2.5133173,-4.778646,2.1111503,5.8556013
656,2026-05-11 16:16:55.318497,1.9165143,0.28660208,2.5133173,-4.778646,2.1111503,5.8556013
657,2026-05-11 16:16:55.321088,1.9165143,0.28660208,2.5133173,-4.778646,2.1111503,5.8556013
658,2026-05-11 16:16:55.323723,1.8252894,0.38435167,2.283426,-4.778646,2.1111503,5.8556013
659,2026-05-11 16:16:55.326427,1.8252894,0.38435167,2.283426,-4.778646,2.1111503,5.8556013
660,2026-05-11 16:16:55.329118,1.8252894,0.38435167,2.283426,-4.326606,2.31915,5.4170003
661,2026-05-11 16:16:55.332042,1.8252894,0.38435167,2.283426,-4.326606,2.31915,5.4170003
662,2026-05-11 16:16:55.335331,1.8252894,0.38435167,2.283426,-4.1883974,2.5433373,5.203961
663,2026-05-11 16:16:55.338072,1.8252894,0.38435167,2.283426,-4.1883974,2.5433373,5.203961
664,2026-05-11 16:16:55.340822,1.7140025,0.4158779,2.078109,-4.1883974,2.5433373,5.203961
665,2026-05-11 16:16:55.343462,1.7140025,0.4158779,2.078109,-4.1883974,2.5433373,5.203961
666,2026-05-11 16:16:55.346019,1.7140025,0.4158779,2.078109,-4.1883974,2.5433373,5.203961
667,2026-05-11 16:16:55.348973,1.7140025,0.4158779,2.078109,-4.1883974,2.5433373,5.203961
668,2026-05-11 16:16:55.352382,1.7140025,0.4158779,2.078109,-4.1883974,2.5433373,5.203961
669,2026-05-11 16:16:55.355129,1.7140025,0.4158779,2.078109,-4.1883974,2.5433373,5.203961
670,2026-05-11 16:16:55.357854,1.7140025,0.4158779,2.078109,-4.1883974,2.5433373,5.203961
671,2026-05-11 16:16:55.360478,1.7140025,0.4158779,2.078109,-4.1883974,2.5433373,5.203961
672,2026-05-11 16:16:55.363098,1.7140025,0.4158779,2.078109,-4.1883974,2.5433373,5.203961
673,2026-05-11 16:16:55.366066,1.7140025,0.4158779,2.078109,-4.1883974,2.5433373,5.203961
674,2026-05-11 16:16:55.369325,1.7140025,0.4158779,2.078109,-4.1883974,2.5433373,5.203961
675,2026-05-11 16:16:55.372075,1.7140025,0.4158779,2.078109,-4.1883974,2.5433373,5.203961
676,2026-05-11 16:16:55.374678,1.7140025,0.4158779,2.078109,-4.1883974,2.5433373,5.203961
677,2026-05-11 16:16:55.377504,1.7140025,0.4158779,2.078109,-4.1883974,2.5433373,5.203961
678,2026-05-11 16:16:55.380224,1.7140025,0.4158779,2.078109,-4.1883974,2.5433373,5.203961
679,2026-05-11 16:16:55.382979,1.7140025,0.4158779,2.078109,-4.1883974,2.5433373,5.203961
680,2026-05-11 16:16:55.386279,1.7140025,0.4158779,2.078109,-4.1883974,2.5433373,5.203961
681,2026-05-11 16:16:55.389158,1.7140025,0.4158779,2.078109,-4.1883974,2.5433373,5.203961
682,2026-05-11 16:16:55.391852,1.7140025,0.4158779,2.078109,-4.1883974,2.5433373,5.203961
683,2026-05-11 16:16:55.394605,1.7140025,0.4158779,2.078109,-4.1883974,2.5433373,5.203961
684,2026-05-11 16:16:55.397239,1.7140025,0.4158779,2.078109,-4.1883974,2.5433373,5.203961
685,2026-05-11 16:16:55.400598,1.7140025,0.4158779,2.078109,-4.1883974,2.5433373,5.203961
686,2026-05-11 16:16:55.403527,1.7140025,0.4158779,2.078109,-4.1883974,2.5433373,5.203961
687,2026-05-11 16:16:55.406241,1.7140025,0.4158779,2.078109,-4.1883974,2.5433373,5.203961
688,2026-05-11 16:16:55.408831,1.7140025,0.4158779,2.078109,-4.1883974,2.5433373,5.203961
689,2026-05-11 16:16:55.411437,1.7140025,0.4158779,2.078109,-4.1883974,2.5433373,5.203961
690,2026-05-11 16:16:55.414010,1.7140025,0.4158779,2.078109,-4.1883974,2.5433373,5.203961
691,2026-05-11 16:16:55.417240,1.7140025,0.4158779,2.078109,-4.1883974,2.5433373,5.203961
692,2026-05-11 16:16:55.420029,1.7140025,0.4158779,2.078109,-4.1883974,2.5433373,5.203961
693,2026-05-11 16:16:55.422664,1.7140025,0.4158779,2.078109,-4.1883974,2.5433373,5.203961
694,2026-05-11 16:16:55.425469,1.7140025,0.4158779,2.078109,-4.1883974,2.5433373,5.203961
695,2026-05-11 16:16:55.428105,1.7140025,0.4158779,2.078109,-4.1883974,2.5433373,5.203961
696,2026-05-11 16:16:55.430889,1.7140025,0.4158779,2.078109,-4.1883974,2.5433373,5.203961
697,2026-05-11 16:16:55.434011,1.7140025,0.4158779,2.078109,-4.1883974,2.5433373,5.203961
698,2026-05-11 16:16:55.436790,1.7140025,0.4158779,2.078109,-4.1883974,2.5433373,5.203961
699,2026-05-11 16:16:55.439375,1.7140025,0.4158779,2.078109,-4.1883974,2.5433373,5.203961
700,2026-05-11 16:16:55.442091,1.7140025,0.4158779,2.078109,-4.1883974,2.5433373,5.203961
701,2026-05-11 16:16:55.444676,1.7140025,0.4158779,2.078109,-4.1883974,2.5433373,5.203961
702,2026-05-11 16:16:55.447251,1.7140025,0.4158779,2.078109,-4.1883974,2.5433373,5.203961
703,2026-05-11 16:16:55.450244,1.7140025,0.4158779,2.078109,-4.1883974,2.5433373,5.203961
704,2026-05-11 16:16:55.453026,1.7140025,0.4158779,2.078109,-4.1883974,2.5433373,5.203961
705,2026-05-11 16:16:55.455642,1.7140025,0.4158779,2.078109,-4.1883974,2.5433373,5.203961
706,2026-05-11 16:16:55.458440,1.7140025,0.4158779,2.078109,-4.1883974,2.5433373,5.203961
707,2026-05-11 16:16:55.461148,1.7140025,0.4158779,2.078109,-4.1883974,2.5433373,5.203961
708,2026-05-11 16:16:55.463808,1.7140025,0.4158779,2.078109,-4.1883974,2.5433373,5.203961
709,2026-05-11 16:16:55.466664,1.7140025,0.4158779,2.078109,-4.1883974,2.5433373,5.203961
710,2026-05-11 16:16:55.469616,1.7140025,0.4158779,2.078109,-4.1883974,2.5433373,5.203961
711,2026-05-11 16:16:55.472262,1.7140025,0.4158779,2.078109,-4.1883974,2.5433373,5.203961
712,2026-05-11 16:16:55.474858,1.7140025,0.4158779,2.078109,-4.1883974,2.5433373,5.203961
713,2026-05-11 16:16:55.477633,1.7140025,0.4158779,2.078109,-4.1883974,2.5433373,5.203961
714,2026-05-11 16:16:55.480383,1.7140025,0.4158779,2.078109,-4.1883974,2.5433373,5.203961
715,2026-05-11 16:16:55.483397,1.7140025,0.4158779,2.078109,-4.1883974,2.5433373,5.203961
716,2026-05-11 16:16:55.486317,1.7140025,0.4158779,2.078109,-4.1883974,2.5433373,5.203961
717,2026-05-11 16:16:55.489049,1.7140025,0.4158779,2.078109,-4.1883974,2.5433373,5.203961
718,2026-05-11 16:16:55.491610,1.7140025,0.4158779,2.078109,-4.1883974,2.5433373,5.203961
719,2026-05-11 16:16:55.494385,1.7140025,0.4158779,2.078109,-4.1883974,2.5433373,5.203961
720,2026-05-11 16:16:55.497181,1.7140025,0.4158779,2.078109,-4.1883974,2.5433373,5.203961
721,2026-05-11 16:16:55.500285,1.7140025,0.4158779,2.078109,-4.1883974,2.5433373,5.203961
722,2026-05-11 16:16:55.503006,1.7140025,0.4158779,2.078109,-4.1883974,2.5433373,5.203961
723,2026-05-11 16:16:55.505643,1.7140025,0.4158779,2.078109,-4.1883974,2.5433373,5.203961
724,2026-05-11 16:16:55.508333,1.4874039,0.44240385,1.4944775,-4.1883974,2.5433373,5.203961
725,2026-05-11 16:16:55.510991,1.4874039,0.44240385,1.4944775,-4.522999,3.2027664,4.869207
726,2026-05-11 16:16:55.513729,1.4874039,0.44240385,1.4944775,-4.522999,3.2027664,4.869207
727,2026-05-11 16:16:55.516755,1.3445907,0.4545997,0.98810637,-5.2517614,3.4648278,4.7317624
728,2026-05-11 16:16:55.519691,1.3445907,0.4545997,0.98810637,-5.2517614,3.4648278,4.7317624
729,2026-05-11 16:16:55.522372,1.3445907,0.4545997,0.98810637,-5.2517614,3.4648278,4.7317624
730,2026-05-11 16:16:55.525031,1.3445907,0.4545997,0.98810637,-5.2517614,3.4648278,4.7317624
731,2026-05-11 16:16:55.527593,1.3445907,0.4545997,0.98810637,-5.2517614,3.4648278,4.7317624
732,2026-05-11 16:16:55.530356,1.3445907,0.4545997,0.98810637,-5.2517614,3.4648278,4.7317624
733,2026-05-11 16:16:55.533256,1.3445907,0.4545997,0.98810637,-5.2517614,3.4648278,4.7317624
734,2026-05-11 16:16:55.535987,1.3445907,0.4545997,0.98810637,-5.2517614,3.4648278,4.7317624
735,2026-05-11 16:16:55.538797,1.3445907,0.4545997,0.98810637,-5.2517614,3.4648278,4.7317624
736,2026-05-11 16:16:55.541546,1.3445907,0.4545997,0.98810637,-5.2517614,3.4648278,4.7317624
737,2026-05-11 16:16:55.544305,1.3445907,0.4545997,0.98810637,-5.2517614,3.4648278,4.7317624
738,2026-05-11 16:16:55.546891,1.3445907,0.4545997,0.98810637,-5.2517614,3.4648278,4.7317624
739,2026-05-11 16:16:55.549965,1.3445907,0.4545997,0.98810637,-5.2517614,3.4648278,4.7317624
740,2026-05-11 16:16:55.552744,1.3445907,0.4545997,0.98810637,-5.2517614,3.4648278,4.7317624
741,2026-05-11 16:16:55.555351,1.3445907,0.4545997,0.98810637,-5.2517614,3.4648278,4.7317624
742,2026-05-11 16:16:55.558221,1.3445907,0.4545997,0.98810637,-5.2517614,3.4648278,4.7317624
743,2026-05-11 16:16:55.560883,1.3445907,0.4545997,0.98810637,-5.2517614,3.4648278,4.7317624
744,2026-05-11 16:16:55.563648,1.3445907,0.4545997,0.98810637,-5.2517614,3.4648278,4.7317624
745,2026-05-11 16:16:55.566683,1.2720255,0.354167,0.74510443,-5.2517614,3.4648278,4.7317624
746,2026-05-11 16:16:55.569552,1.2720255,0.354167,0.74510443,-6.493192,3.636328,4.533231
747,2026-05-11 16:16:55.572240,1.2073265,0.14641099,0.6975407,-7.708814,3.7174203,4.2875104
748,2026-05-11 16:16:55.574974,1.2073265,0.14641099,0.6975407,-7.708814,3.7174203,4.2875104
749,2026-05-11 16:16:55.577587,1.2073265,0.14641099,0.6975407,-7.708814,3.7174203,4.2875104
750,2026-05-11 16:16:55.580189,1.2073265,0.14641099,0.6975407,-7.708814,3.7174203,4.2875104
751,2026-05-11 16:16:55.583292,1.2073265,0.14641099,0.6975407,-7.708814,3.7174203,4.2875104
752,2026-05-11 16:16:55.586081,1.2073265,0.14641099,0.6975407,-7.708814,3.7174203,4.2875104
753,2026-05-11 16:16:55.588724,1.2073265,0.14641099,0.6975407,-7.708814,3.7174203,4.2875104
754,2026-05-11 16:16:55.591346,1.2073265,0.14641099,0.6975407,-7.708814,3.7174203,4.2875104
755,2026-05-11 16:16:55.593907,1.2073265,0.14641099,0.6975407,-7.708814,3.7174203,4.2875104
756,2026-05-11 16:16:55.596746,1.1511648,0.06475988,0.7501657,-7.708814,3.7174203,4.2875104
757,2026-05-11 16:16:55.599668,1.1511648,0.06475988,0.7501657,-7.708814,3.7174203,4.2875104
758,2026-05-11 16:16:55.602362,1.1511648,0.06475988,0.7501657,-7.708814,3.7174203,4.2875104
759,2026-05-11 16:16:55.605125,1.1511648,0.06475988,0.7501657,-7.708814,3.7174203,4.2875104
760,2026-05-11 16:16:55.607757,1.1511648,0.06475988,0.7501657,-7.708814,3.7174203,4.2875104
761,2026-05-11 16:16:55.610660,1.1511648,0.06475988,0.7501657,-7.708814,3.7174203,4.2875104
762,2026-05-11 16:16:55.613361,1.1511648,0.06475988,0.7501657,-7.708814,3.7174203,4.2875104
763,2026-05-11 16:16:55.616444,1.1511648,0.06475988,0.7501657,-7.708814,3.7174203,4.2875104
764,2026-05-11 16:16:55.619303,1.1511648,0.06475988,0.7501657,-7.708814,3.7174203,4.2875104
765,2026-05-11 16:16:55.622082,1.1511648,0.06475988,0.7501657,-7.708814,3.7174203,4.2875104
766,2026-05-11 16:16:55.624921,1.1511648,0.06475988,0.7501657,-7.708814,3.7174203,4.2875104
767,2026-05-11 16:16:55.627713,1.1511648,0.06475988,0.7501657,-7.708814,3.7174203,4.2875104
768,2026-05-11 16:16:55.630367,1.1511648,0.06475988,0.7501657,-7.708814,3.7174203,4.2875104
769,2026-05-11 16:16:55.633591,1.1511648,0.06475988,0.7501657,-7.708814,3.7174203,4.2875104
770,2026-05-11 16:16:55.636348,1.1051254,-0.03725827,1.0637206,-7.708814,3.7174203,4.2875104
771,2026-05-11 16:16:55.639079,1.1051254,-0.03725827,1.0637206,-9.05852,2.8620565,3.8922806
772,2026-05-11 16:16:55.641723,1.1051254,-0.03725827,1.0637206,-9.05852,2.8620565,3.8922806
773,2026-05-11 16:16:55.644352,1.1587261,-0.040795065,1.5152714,-9.048747,2.1326833,3.7995818
774,2026-05-11 16:16:55.647051,1.1587261,-0.040795065,1.5152714,-9.048747,2.1326833,3.7995818
775,2026-05-11 16:16:55.650071,1.1587261,-0.040795065,1.5152714,-9.048747,2.1326833,3.7995818
776,2026-05-11 16:16:55.653000,1.1587261,-0.040795065,1.5152714,-9.048747,2.1326833,3.7995818
777,2026-05-11 16:16:55.655645,1.1587261,-0.040795065,1.5152714,-9.048747,2.1326833,3.7995818
778,2026-05-11 16:16:55.658260,1.1587261,-0.040795065,1.5152714,-9.048747,2.1326833,3.7995818
779,2026-05-11 16:16:55.661013,1.1587261,-0.040795065,1.5152714,-9.048747,2.1326833,3.7995818
780,2026-05-11 16:16:55.663624,1.1587261,-0.040795065,1.5152714,-9.048747,2.1326833,3.7995818
781,2026-05-11 16:16:55.666704,1.1587261,-0.040795065,1.5152714,-9.048747,2.1326833,3.7995818
782,2026-05-11 16:16:55.669485,1.1587261,-0.040795065,1.5152714,-9.048747,2.1326833,3.7995818
783,2026-05-11 16:16:55.672082,1.1587261,-0.040795065,1.5152714,-9.048747,2.1326833,3.7995818
784,2026-05-11 16:16:55.674654,1.1587261,-0.040795065,1.5152714,-9.048747,2.1326833,3.7995818
785,2026-05-11 16:16:55.677440,1.1587261,-0.040795065,1.5152714,-9.048747,2.1326833,3.7995818
786,2026-05-11 16:16:55.680163,1.1587261,-0.040795065,1.5152714,-9.048747,2.1326833,3.7995818
787,2026-05-11 16:16:55.683155,1.1587261,-0.040795065,1.5152714,-8.24607,1.2838861,3.7137554
788,2026-05-11 16:16:55.685984,1.3711165,0.10445731,2.0612788,-8.24607,1.2838861,3.7137554
789,2026-05-11 16:16:55.688840,1.3711165,0.10445731,2.0612788,-8.24607,1.2838861,3.7137554
790,2026-05-11 16:16:55.691527,1.3711165,0.10445731,2.0612788,-8.24607,1.2838861,3.7137554
791,2026-05-11 16:16:55.694250,1.3711165,0.10445731,2.0612788,-8.24607,1.2838861,3.7137554
792,2026-05-11 16:16:55.697013,1.3711165,0.10445731,2.0612788,-8.24607,1.2838861,3.7137554
793,2026-05-11 16:16:55.700042,1.3711165,0.10445731,2.0612788,-8.24607,1.2838861,3.7137554
794,2026-05-11 16:16:55.702932,1.3711165,0.10445731,2.0612788,-6.9692087,0.87995136,3.5569155
795,2026-05-11 16:16:55.705582,1.3711165,0.10445731,2.0612788,-6.9692087,0.87995136,3.5569155
796,2026-05-11 16:16:55.708171,1.3711165,0.10445731,2.0612788,-6.9692087,0.87995136,3.5569155
797,2026-05-11 16:16:55.711003,1.3711165,0.10445731,2.0612788,-6.9692087,0.87995136,3.5569155
798,2026-05-11 16:16:55.713772,1.3711165,0.10445731,2.0612788,-6.9692087,0.87995136,3.5569155
799,2026-05-11 16:16:55.716657,1.3711165,0.10445731,2.0612788,-6.9692087,0.87995136,3.5569155
800,2026-05-11 16:16:55.719477,1.3711165,0.10445731,2.0612788,-6.9692087,0.87995136,3.5569155
801,2026-05-11 16:16:55.722181,1.5290526,0.6213777,2.0195081,-6.9692087,0.87995136,3.5569155
802,2026-05-11 16:16:55.724782,1.5290526,0.6213777,2.0195081,-6.9692087,0.87995136,3.5569155
803,2026-05-11 16:16:55.727550,1.5290526,0.6213777,2.0195081,-6.9692087,0.87995136,3.5569155
804,2026-05-11 16:16:55.730279,1.5290526,0.6213777,2.0195081,-4.7881145,0.6392705,3.1726813
805,2026-05-11 16:16:55.733292,1.8549253,1.0612204,1.7678471,-4.7881145,0.6392705,3.1726813
806,2026-05-11 16:16:55.735988,1.8549253,1.0612204,1.7678471,-4.7881145,0.6392705,3.1726813
807,2026-05-11 16:16:55.738600,1.8549253,1.0612204,1.7678471,-4.7881145,0.6392705,3.1726813
808,2026-05-11 16:16:55.741142,1.8549253,1.0612204,1.7678471,-4.7881145,0.6392705,3.1726813
809,2026-05-11 16:16:55.743768,1.8549253,1.0612204,1.7678471,-4.7881145,0.6392705,3.1726813
810,2026-05-11 16:16:55.746310,1.8549253,1.0612204,1.7678471,-4.7881145,0.6392705,3.1726813
811,2026-05-11 16:16:55.749321,1.8549253,1.0612204,1.7678471,-4.7881145,0.6392705,3.1726813
812,2026-05-11 16:16:55.752174,1.8549253,1.0612204,1.7678471,-4.7881145,0.6392705,3.1726813
813,2026-05-11 16:16:55.754885,1.8549253,1.0612204,1.7678471,-4.7881145,0.6392705,3.1726813
814,2026-05-11 16:16:55.757584,1.8549253,1.0612204,1.7678471,-4.7881145,0.6392705,3.1726813
815,2026-05-11 16:16:55.760185,1.8549253,1.0612204,1.7678471,-4.7881145,0.6392705,3.1726813
816,2026-05-11 16:16:55.762939,1.8549253,1.0612204,1.7678471,-4.7881145,0.6392705,3.1726813
817,2026-05-11 16:16:55.765801,2.0063975,1.314345,1.3937398,-4.7881145,0.6392705,3.1726813
818,2026-05-11 16:16:55.788004,1.8133985,1.1754954,1.1146382,-4.989089,-0.91721416,2.4750733
819,2026-05-11 16:16:55.798528,1.8133985,1.1754954,1.1146382,-4.7870455,-1.3249667,2.526844
820,2026-05-11 16:16:55.808186,1.3744705,2.219276,2.4803276,0.46593747,-0.44806966,-3.3498323
821,2026-05-11 16:16:55.811042,1.3744705,2.219276,2.4803276,0.46593747,-0.44806966,-3.3498323
822,2026-05-11 16:16:55.813692,1.3744705,2.219276,2.4803276,0.46593747,-0.44806966,-3.3498323
823,2026-05-11 16:16:55.816911,1.1637874,2.019386,2.464839,1.2457069,-0.35705075,-3.5483634
824,2026-05-11 16:16:55.819614,1.1637874,2.019386,2.464839,1.2457069,-0.35705075,-3.5483634
825,2026-05-11 16:16:55.822347,1.1637874,2.019386,2.464839,1.2457069,-0.35705075,-3.5483634
826,2026-05-11 16:16:55.825078,1.1637874,2.019386,2.464839,1.2457069,-0.35705075,-3.5483634
827,2026-05-11 16:16:55.827642,1.1637874,2.019386,2.464839,1.2457069,-0.35705075,-3.5483634
828,2026-05-11 16:16:55.830200,1.1637874,2.019386,2.464839,1.2457069,-0.35705075,-3.5483634
829,2026-05-11 16:16:55.833308,1.1637874,2.019386,2.464839,2.133447,-0.019547688,-3.6910005
830,2026-05-11 16:16:55.836149,1.1637874,2.019386,2.464839,2.133447,-0.019547688,-3.6910005
831,2026-05-11 16:16:55.838798,1.1637874,2.019386,2.464839,2.133447,-0.019547688,-3.6910005
832,2026-05-11 16:16:55.841410,1.1637874,2.019386,2.464839,2.133447,-0.019547688,-3.6910005
833,2026-05-11 16:16:55.844336,1.1637874,2.019386,2.464839,2.133447,-0.019547688,-3.6910005
834,2026-05-11 16:16:55.846948,1.1637874,2.019386,2.464839,2.133447,-0.019547688,-3.6910005
835,2026-05-11 16:16:55.850211,1.1637874,2.019386,2.464839,2.133447,-0.019547688,-3.6910005
836,2026-05-11 16:16:55.853026,1.1637874,2.019386,2.464839,2.133447,-0.019547688,-3.6910005
837,2026-05-11 16:16:55.855727,1.1637874,2.019386,2.464839,2.133447,-0.019547688,-3.6910005
838,2026-05-11 16:16:55.858362,1.1637874,2.019386,2.464839,2.133447,-0.019547688,-3.6910005
839,2026-05-11 16:16:55.860958,1.1637874,2.019386,2.464839,2.133447,-0.019547688,-3.6910005
840,2026-05-11 16:16:55.863741,1.1637874,2.019386,2.464839,3.199712,0.46303585,-3.7374263
841,2026-05-11 16:16:55.866628,1.1637874,2.019386,2.464839,3.199712,0.46303585,-3.7374263
842,2026-05-11 16:16:55.869462,1.1637874,2.019386,2.464839,3.199712,0.46303585,-3.7374263
843,2026-05-11 16:16:55.872066,1.1637874,2.019386,2.464839,3.199712,0.46303585,-3.7374263
844,2026-05-11 16:16:55.874694,1.0464635,1.7730912,2.4087381,3.199712,0.46303585,-3.7374263
845,2026-05-11 16:16:55.877537,1.053964,1.6151552,2.3698332,3.7647624,0.62598413,-3.7418551
846,2026-05-11 16:16:55.880292,1.053964,1.6151552,2.3698332,3.7647624,0.62598413,-3.7418551
847,2026-05-11 16:16:55.883346,1.053964,1.6151552,2.3698332,3.7647624,0.62598413,-3.7418551
848,2026-05-11 16:16:55.886111,1.053964,1.6151552,2.3698332,3.7647624,0.62598413,-3.7418551
849,2026-05-11 16:16:55.888766,1.053964,1.6151552,2.3698332,3.7647624,0.62598413,-3.7418551
850,2026-05-11 16:16:55.891469,1.053964,1.6151552,2.3698332,3.7647624,0.62598413,-3.7418551
851,2026-05-11 16:16:55.894129,1.053964,1.6151552,2.3698332,3.7647624,0.62598413,-3.7418551
852,2026-05-11 16:16:55.896733,1.053964,1.6151552,2.3698332,3.7647624,0.62598413,-3.7418551
853,2026-05-11 16:16:55.899873,1.053964,1.6151552,2.3698332,3.7647624,0.62598413,-3.7418551
854,2026-05-11 16:16:55.902710,1.053964,1.6151552,2.3698332,3.7647624,0.62598413,-3.7418551
855,2026-05-11 16:16:55.905302,1.053964,1.6151552,2.3698332,3.7647624,0.62598413,-3.7418551
856,2026-05-11 16:16:55.908181,1.053964,1.6151552,2.3698332,3.7647624,0.62598413,-3.7418551
857,2026-05-11 16:16:55.910874,1.1373835,1.2863555,2.224215,3.7647624,0.62598413,-3.7418551
858,2026-05-11 16:16:55.913568,1.1373835,1.2863555,2.224215,3.7647624,0.62598413,-3.7418551
859,2026-05-11 16:16:55.916711,1.1373835,1.2863555,2.224215,3.7647624,0.62598413,-3.7418551
860,2026-05-11 16:16:55.919388,1.1373835,1.2863555,2.224215,3.7647624,0.62598413,-3.7418551
861,2026-05-11 16:16:55.922098,1.1373835,1.2863555,2.224215,3.7647624,0.62598413,-3.7418551
862,2026-05-11 16:16:55.924692,1.1373835,1.2863555,2.224215,3.7647624,0.62598413,-3.7418551
863,2026-05-11 16:16:55.927433,1.1373835,1.2863555,2.224215,3.7647624,0.62598413,-3.7418551
864,2026-05-11 16:16:55.930040,1.1373835,1.2863555,2.224215,4.9307513,0.73991054,-3.8029416
865,2026-05-11 16:16:55.933117,1.1373835,1.2863555,2.224215,4.9307513,0.73991054,-3.8029416
866,2026-05-11 16:16:55.935966,1.1373835,1.2863555,2.224215,4.9307513,0.73991054,-3.8029416
867,2026-05-11 16:16:55.938632,1.1373835,1.2863555,2.224215,4.9307513,0.73991054,-3.8029416
868,2026-05-11 16:16:55.941224,1.1373835,1.2863555,2.224215,4.9307513,0.73991054,-3.8029416
869,2026-05-11 16:16:55.944067,1.1373835,1.2863555,2.224215,4.9307513,0.73991054,-3.8029416
870,2026-05-11 16:16:55.946704,1.1373835,1.2863555,2.224215,4.9307513,0.73991054,-3.8029416
871,2026-05-11 16:16:55.949787,1.1373835,1.2863555,2.224215,4.9307513,0.73991054,-3.8029416
872,2026-05-11 16:16:55.952600,1.1373835,1.2863555,2.224215,4.9307513,0.73991054,-3.8029416
873,2026-05-11 16:16:55.955351,1.1373835,1.2863555,2.224215,4.9307513,0.73991054,-3.8029416
874,2026-05-11 16:16:55.958112,1.3165402,1.030243,2.0421314,4.9307513,0.73991054,-3.8029416
875,2026-05-11 16:16:55.960868,1.3165402,1.030243,2.0421314,4.9307513,0.73991054,-3.8029416
876,2026-05-11 16:16:55.963493,1.3165402,1.030243,2.0421314,4.9307513,0.73991054,-3.8029416
877,2026-05-11 16:16:55.966546,1.3165402,1.030243,2.0421314,4.9307513,0.73991054,-3.8029416
878,2026-05-11 16:16:55.969238,1.3165402,1.030243,2.0421314,4.9307513,0.73991054,-3.8029416
879,2026-05-11 16:16:55.971838,1.3165402,1.030243,2.0421314,4.9307513,0.73991054,-3.8029416
880,2026-05-11 16:16:55.974636,1.3165402,1.030243,2.0421314,4.9307513,0.73991054,-3.8029416
881,2026-05-11 16:16:55.977376,1.3165402,1.030243,2.0421314,4.9307513,0.73991054,-3.8029416
882,2026-05-11 16:16:55.980096,1.3165402,1.030243,2.0421314,4.9307513,0.73991054,-3.8029416
883,2026-05-11 16:16:55.983042,1.3165402,1.030243,2.0421314,4.9307513,0.73991054,-3.8029416
884,2026-05-11 16:16:55.985856,1.3165402,1.030243,2.0421314,4.9307513,0.73991054,-3.8029416
885,2026-05-11 16:16:55.988635,1.3165402,1.030243,2.0421314,4.9307513,0.73991054,-3.8029416
886,2026-05-11 16:16:55.991475,1.370019,0.7568734,1.7636395,6.3244405,0.32162055,-4.2386413
887,2026-05-11 16:16:55.994244,1.370019,0.7568734,1.7636395,6.3244405,0.32162055,-4.2386413
888,2026-05-11 16:16:55.996874,1.370019,0.7568734,1.7636395,6.3244405,0.32162055,-4.2386413
889,2026-05-11 16:16:55.999988,1.370019,0.7568734,1.7636395,6.3244405,0.32162055,-4.2386413
890,2026-05-11 16:16:56.002677,1.370019,0.7568734,1.7636395,6.3244405,0.32162055,-4.2386413
891,2026-05-11 16:16:56.005324,1.370019,0.7568734,1.7636395,6.3244405,0.32162055,-4.2386413
892,2026-05-11 16:16:56.007918,1.370019,0.7568734,1.7636395,6.3244405,0.32162055,-4.2386413
893,2026-05-11 16:16:56.010766,1.370019,0.7568734,1.7636395,6.3244405,0.32162055,-4.2386413
894,2026-05-11 16:16:56.013369,1.370019,0.7568734,1.7636395,6.3244405,0.32162055,-4.2386413
895,2026-05-11 16:16:56.016426,1.370019,0.7568734,1.7636395,6.3244405,0.32162055,-4.2386413
896,2026-05-11 16:16:56.019163,1.370019,0.7568734,1.7636395,6.3244405,0.32162055,-4.2386413
897,2026-05-11 16:16:56.022008,1.370019,0.7568734,1.7636395,6.3244405,0.32162055,-4.2386413
898,2026-05-11 16:16:56.024673,1.370019,0.7568734,1.7636395,6.3244405,0.32162055,-4.2386413
899,2026-05-11 16:16:56.027267,1.370019,0.7568734,1.7636395,6.3244405,0.32162055,-4.2386413
900,2026-05-11 16:16:56.030012,1.370019,0.7568734,1.7636395,6.3244405,0.32162055,-4.2386413
901,2026-05-11 16:16:56.032980,1.370019,0.7568734,1.7636395,6.3244405,0.32162055,-4.2386413
902,2026-05-11 16:16:56.035743,1.370019,0.7568734,1.7636395,6.3244405,0.32162055,-4.2386413
903,2026-05-11 16:16:56.038418,1.370019,0.7568734,1.7636395,6.3244405,0.32162055,-4.2386413
904,2026-05-11 16:16:56.041091,1.370019,0.7568734,1.7636395,6.3244405,0.32162055,-4.2386413
905,2026-05-11 16:16:56.043872,1.370019,0.7568734,1.7636395,6.3244405,0.32162055,-4.2386413
906,2026-05-11 16:16:56.046496,1.370019,0.7568734,1.7636395,6.3244405,0.32162055,-4.2386413
907,2026-05-11 16:16:56.049663,1.370019,0.7568734,1.7636395,6.3244405,0.32162055,-4.2386413
908,2026-05-11 16:16:56.052399,1.370019,0.7568734,1.7636395,6.3244405,0.32162055,-4.2386413
909,2026-05-11 16:16:56.055014,1.370019,0.7568734,1.7636395,6.3244405,0.32162055,-4.2386413
910,2026-05-11 16:16:56.057733,1.370019,0.7568734,1.7636395,6.3244405,0.32162055,-4.2386413
911,2026-05-11 16:16:56.060406,1.3668481,0.523872,1.4908187,6.3244405,0.32162055,-4.2386413
912,2026-05-11 16:16:56.063120,1.3668481,0.523872,1.4908187,6.3244405,0.32162055,-4.2386413
913,2026-05-11 16:16:56.066011,1.3668481,0.523872,1.4908187,6.3244405,0.32162055,-4.2386413
914,2026-05-11 16:16:56.068776,1.3668481,0.523872,1.4908187,6.3244405,0.32162055,-4.2386413
915,2026-05-11 16:16:56.071548,1.3668481,0.523872,1.4908187,6.3244405,0.32162055,-4.2386413
916,2026-05-11 16:16:56.074172,1.3668481,0.523872,1.4908187,6.3244405,0.32162055,-4.2386413
917,2026-05-11 16:16:56.076966,1.3668481,0.523872,1.4908187,6.3244405,0.32162055,-4.2386413
918,2026-05-11 16:16:56.079566,1.3668481,0.523872,1.4908187,6.3244405,0.32162055,-4.2386413
919,2026-05-11 16:16:56.082631,1.3668481,0.523872,1.4908187,6.3244405,0.32162055,-4.2386413
920,2026-05-11 16:16:56.085427,1.3668481,0.523872,1.4908187,6.3244405,0.32162055,-4.2386413
921,2026-05-11 16:16:56.088239,1.3668481,0.523872,1.4908187,6.5666485,0.08200866,-4.4700065
922,2026-05-11 16:16:56.090938,1.3668481,0.523872,1.4908187,6.5666485,0.08200866,-4.4700065
923,2026-05-11 16:16:56.093604,1.3668481,0.523872,1.4908187,6.5666485,0.08200866,-4.4700065
924,2026-05-11 16:16:56.096166,1.3668481,0.523872,1.4908187,6.5666485,0.08200866,-4.4700065
925,2026-05-11 16:16:56.099330,1.3668481,0.523872,1.4908187,6.5666485,0.08200866,-4.4700065
926,2026-05-11 16:16:56.102195,1.3668481,0.523872,1.4908187,6.5666485,0.08200866,-4.4700065
927,2026-05-11 16:16:56.104970,1.425693,0.40703595,1.3997158,6.5205283,-0.018784106,-4.5904994
928,2026-05-11 16:16:56.107580,1.425693,0.40703595,1.3997158,6.5205283,-0.018784106,-4.5904994
929,2026-05-11 16:16:56.110141,1.425693,0.40703595,1.3997158,6.5205283,-0.018784106,-4.5904994
930,2026-05-11 16:16:56.112881,1.425693,0.40703595,1.3997158,6.5205283,-0.018784106,-4.5904994
931,2026-05-11 16:16:56.115866,1.425693,0.40703595,1.3997158,6.5205283,-0.018784106,-4.5904994
932,2026-05-11 16:16:56.118789,1.425693,0.40703595,1.3997158,6.5205283,-0.018784106,-4.5904994
933,2026-05-11 16:16:56.121378,1.425693,0.40703595,1.3997158,6.5205283,-0.018784106,-4.5904994
934,2026-05-11 16:16:56.123948,1.425693,0.40703595,1.3997158,6.5205283,-0.018784106,-4.5904994
935,2026-05-11 16:16:56.126591,1.425693,0.40703595,1.3997158,6.5205283,-0.018784106,-4.5904994
936,2026-05-11 16:16:56.129131,1.425693,0.40703595,1.3997158,6.5205283,-0.018784106,-4.5904994
937,2026-05-11 16:16:56.132365,1.425693,0.40703595,1.3997158,6.261216,-0.24083363,-4.9475503
938,2026-05-11 16:16:56.135286,1.6480839,0.19104773,1.4866722,6.261216,-0.24083363,-4.9475503
939,2026-05-11 16:16:56.137893,1.6480839,0.19104773,1.4866722,6.261216,-0.24083363,-4.9475503
940,2026-05-11 16:16:56.140850,1.6480839,0.19104773,1.4866722,6.261216,-0.24083363,-4.9475503
941,2026-05-11 16:16:56.143518,1.6480839,0.19104773,1.4866722,6.261216,-0.24083363,-4.9475503
942,2026-05-11 16:16:56.146261,1.6480839,0.19104773,1.4866722,6.261216,-0.24083363,-4.9475503
943,2026-05-11 16:16:56.149374,1.6480839,0.19104773,1.4866722,6.261216,-0.24083363,-4.9475503
944,2026-05-11 16:16:56.152221,1.6480839,0.19104773,1.4866722,6.261216,-0.24083363,-4.9475503
945,2026-05-11 16:16:56.154909,1.6480839,0.19104773,1.4866722,6.261216,-0.24083363,-4.9475503
946,2026-05-11 16:16:56.157554,1.6480839,0.19104773,1.4866722,6.14561,-0.36972618,-5.2001433
947,2026-05-11 16:16:56.160305,1.6480839,0.19104773,1.4866722,6.14561,-0.36972618,-5.2001433
948,2026-05-11 16:16:56.162904,1.6480839,0.19104773,1.4866722,6.14561,-0.36972618,-5.2001433
949,2026-05-11 16:16:56.165865,1.6480839,0.19104773,1.4866722,5.996253,-0.6275113,-5.7873373
950,2026-05-11 16:16:56.168723,1.6480839,0.19104773,1.4866722,5.996253,-0.6275113,-5.7873373
951,2026-05-11 16:16:56.171506,1.6480839,0.19104773,1.4866722,5.996253,-0.6275113,-5.7873373
952,2026-05-11 16:16:56.174101,1.6480839,0.19104773,1.4866722,5.996253,-0.6275113,-5.7873373
953,2026-05-11 16:16:56.176946,1.6480839,0.19104773,1.4866722,5.996253,-0.6275113,-5.7873373
954,2026-05-11 16:16:56.179601,1.6480839,0.19104773,1.4866722,5.996253,-0.6275113,-5.7873373
955,2026-05-11 16:16:56.182527,1.6480839,0.19104773,1.4866722,5.996253,-0.6275113,-5.7873373
956,2026-05-11 16:16:56.185492,1.6480839,0.19104773,1.4866722,5.996253,-0.6275113,-5.7873373
957,2026-05-11 16:16:56.188128,1.6480839,0.19104773,1.4866722,5.996253,-0.6275113,-5.7873373
958,2026-05-11 16:16:56.191032,1.6480839,0.19104773,1.4866722,5.996253,-0.6275113,-5.7873373
959,2026-05-11 16:16:56.193919,1.8604745,-0.19738956,2.1724439,5.996253,-0.6275113,-5.7873373
960,2026-05-11 16:16:56.196568,1.8604745,-0.19738956,2.1724439,5.996253,-0.6275113,-5.7873373
961,2026-05-11 16:16:56.199789,1.8604745,-0.19738956,2.1724439,6.088494,-0.8344419,-6.1388903
962,2026-05-11 16:16:56.202631,1.8604745,-0.19738956,2.1724439,6.088494,-0.8344419,-6.1388903
963,2026-05-11 16:16:56.205244,1.8604745,-0.19738956,2.1724439,6.088494,-0.8344419,-6.1388903
964,2026-05-11 16:16:56.207849,1.8604745,-0.19738956,2.1724439,6.088494,-0.8344419,-6.1388903
965,2026-05-11 16:16:56.210566,1.8604745,-0.19738956,2.1724439,6.088494,-0.8344419,-6.1388903
966,2026-05-11 16:16:56.213473,1.8604745,-0.19738956,2.1724439,6.4666195,-1.1039863,-6.5160995
967,2026-05-11 16:16:56.216611,1.8604745,-0.19738956,2.1724439,6.4666195,-1.1039863,-6.5160995
968,2026-05-11 16:16:56.219569,1.8604745,-0.19738956,2.1724439,6.4666195,-1.1039863,-6.5160995
969,2026-05-11 16:16:56.222270,1.8604745,-0.19738956,2.1724439,6.4666195,-1.1039863,-6.5160995
970,2026-05-11 16:16:56.224951,1.8604745,-0.19738956,2.1724439,6.4666195,-1.1039863,-6.5160995
971,2026-05-11 16:16:56.227729,1.8604745,-0.19738956,2.1724439,6.4666195,-1.1039863,-6.5160995
972,2026-05-11 16:16:56.230367,1.8604745,-0.19738956,2.1724439,6.4666195,-1.1039863,-6.5160995
973,2026-05-11 16:16:56.233471,1.8604745,-0.19738956,2.1724439,6.4666195,-1.1039863,-6.5160995
974,2026-05-11 16:16:56.236241,1.8604745,-0.19738956,2.1724439,6.4666195,-1.1039863,-6.5160995
975,2026-05-11 16:16:56.238859,1.8604745,-0.19738956,2.1724439,6.4666195,-1.1039863,-6.5160995
976,2026-05-11 16:16:56.241676,1.9538945,-0.50862724,2.7859552,6.4666195,-1.1039863,-6.5160995
977,2026-05-11 16:16:56.244366,1.9538945,-0.50862724,2.7859552,7.3019776,-1.527774,-6.971347
978,2026-05-11 16:16:56.246993,1.9538945,-0.50862724,2.7859552,7.3019776,-1.527774,-6.971347
979,2026-05-11 16:16:56.249958,1.9538945,-0.50862724,2.7859552,8.017148,-1.8037324,-7.4311757
980,2026-05-11 16:16:56.252755,1.9538945,-0.50862724,2.7859552,8.017148,-1.8037324,-7.4311757
981,2026-05-11 16:16:56.255490,1.9538945,-0.50862724,2.7859552,8.017148,-1.8037324,-7.4311757
982,2026-05-11 16:16:56.258143,1.9538945,-0.50862724,2.7859552,8.017148,-1.8037324,-7.4311757
983,2026-05-11 16:16:56.260740,1.9538945,-0.50862724,2.7859552,8.017148,-1.8037324,-7.4311757
984,2026-05-11 16:16:56.263573,1.9538945,-0.50862724,2.7859552,8.017148,-1.8037324,-7.4311757
985,2026-05-11 16:16:56.266647,1.9538945,-0.50862724,2.7859552,8.017148,-1.8037324,-7.4311757
986,2026-05-11 16:16:56.269405,1.9538945,-0.50862724,2.7859552,8.017148,-1.8037324,-7.4311757
987,2026-05-11 16:16:56.272017,1.9538945,-0.50862724,2.7859552,8.017148,-1.8037324,-7.4311757
988,2026-05-11 16:16:56.274604,1.9538945,-0.50862724,2.7859552,8.017148,-1.8037324,-7.4311757
989,2026-05-11 16:16:56.277171,1.9538945,-0.50862724,2.7859552,8.017148,-1.8037324,-7.4311757
990,2026-05-11 16:16:56.279889,1.9538945,-0.50862724,2.7859552,8.017148,-1.8037324,-7.4311757
991,2026-05-11 16:16:56.282908,1.9538945,-0.50862724,2.7859552,8.017148,-1.8037324,-7.4311757
992,2026-05-11 16:16:56.285822,1.9538945,-0.50862724,2.7859552,8.017148,-1.8037324,-7.4311757
993,2026-05-11 16:16:56.288467,1.9538945,-0.50862724,2.7859552,8.017148,-1.8037324,-7.4311757
994,2026-05-11 16:16:56.291056,1.9538945,-0.50862724,2.7859552,8.017148,-1.8037324,-7.4311757
995,2026-05-11 16:16:56.293744,1.9538945,-0.50862724,2.7859552,8.017148,-1.8037324,-7.4311757
996,2026-05-11 16:16:56.296423,1.9538945,-0.50862724,2.7859552,8.017148,-1.8037324,-7.4311757
997,2026-05-11 16:16:56.299564,1.9538945,-0.50862724,2.7859552,8.017148,-1.8037324,-7.4311757
998,2026-05-11 16:16:56.302279,1.9538945,-0.50862724,2.7859552,8.017148,-1.8037324,-7.4311757
999,2026-05-11 16:16:56.305002,1.9538945,-0.50862724,2.7859552,8.017148,-1.8037324,-7.4311757
1000,2026-05-11 16:16:56.307622,1.9538945,-0.50862724,2.7859552,8.017148,-1.8037324,-7.4311757
1001,2026-05-11 16:16:56.310178,1.9538945,-0.50862724,2.7859552,8.017148,-1.8037324,-7.4311757
1002,2026-05-11 16:16:56.312781,1.9538945,-0.50862724,2.7859552,8.017148,-1.8037324,-7.4311757
1003,2026-05-11 16:16:56.315806,2.087378,-0.6181458,2.9185848,8.017148,-1.8037324,-7.4311757
1004,2026-05-11 16:16:56.318687,2.087378,-0.6181458,2.9185848,8.533482,-1.8912388,-7.8300705
1005,2026-05-11 16:16:56.321296,2.087378,-0.6181458,2.9185848,8.533482,-1.8912388,-7.8300705
1006,2026-05-11 16:16:56.324009,1.9155387,-0.90236974,2.7827845,9.233075,-1.7756325,-8.206516
1007,2026-05-11 16:16:56.326637,1.9155387,-0.90236974,2.7827845,9.233075,-1.7756325,-8.206516
1008,2026-05-11 16:16:56.329211,1.9155387,-0.90236974,2.7827845,9.233075,-1.7756325,-8.206516
1009,2026-05-11 16:16:56.332269,1.9155387,-0.90236974,2.7827845,9.233075,-1.7756325,-8.206516
1010,2026-05-11 16:16:56.335002,1.9155387,-0.90236974,2.7827845,9.233075,-1.7756325,-8.206516
1011,2026-05-11 16:16:56.337651,1.9155387,-0.90236974,2.7827845,9.233075,-1.7756325,-8.206516
1012,2026-05-11 16:16:56.340458,1.8202282,-1.0265234,2.6715584,9.233075,-1.7756325,-8.206516
1013,2026-05-11 16:16:56.343188,1.7694936,-1.1488476,2.470449,9.233075,-1.7756325,-8.206516
1014,2026-05-11 16:16:56.345967,1.7694936,-1.1488476,2.470449,9.233075,-1.7756325,-8.206516
1015,2026-05-11 16:16:56.348915,1.7694936,-1.1488476,2.470449,9.233075,-1.7756325,-8.206516
1016,2026-05-11 16:16:56.352278,1.7694936,-1.1488476,2.470449,9.233075,-1.7756325,-8.206516
1017,2026-05-11 16:16:56.355013,1.7694936,-1.1488476,2.470449,9.233075,-1.7756325,-8.206516
1018,2026-05-11 16:16:56.357639,1.7694936,-1.1488476,2.470449,9.394955,-1.675298,-8.176584
1019,2026-05-11 16:16:56.360237,1.7694936,-1.1488476,2.470449,9.394955,-1.675298,-8.176584
1020,2026-05-11 16:16:56.362818,1.7694936,-1.1488476,2.470449,9.394955,-1.675298,-8.176584
1021,2026-05-11 16:16:56.365642,1.7694936,-1.1488476,2.470449,9.394955,-1.675298,-8.176584
1022,2026-05-11 16:16:56.369240,1.7694936,-1.1488476,2.470449,9.394955,-1.675298,-8.176584
1023,2026-05-11 16:16:56.372080,1.7694936,-1.1488476,2.470449,9.394955,-1.675298,-8.176584
1024,2026-05-11 16:16:56.374714,1.7694936,-1.1488476,2.470449,9.394955,-1.675298,-8.176584
1025,2026-05-11 16:16:56.377442,1.7694936,-1.1488476,2.470449,9.394955,-1.675298,-8.176584
1026,2026-05-11 16:16:56.380165,1.7694936,-1.1488476,2.470449,9.394955,-1.675298,-8.176584
1027,2026-05-11 16:16:56.383301,1.7694936,-1.1488476,2.470449,9.394955,-1.675298,-8.176584
1028,2026-05-11 16:16:56.386179,1.7694936,-1.1488476,2.470449,9.394955,-1.675298,-8.176584
1029,2026-05-11 16:16:56.389035,1.2492802,-1.3249553,1.8914518,9.436188,-1.6473509,-8.095644
1030,2026-05-11 16:16:56.391904,1.2492802,-1.3249553,1.8914518,9.400147,-1.7805195,-7.8893247
1031,2026-05-11 16:16:56.394613,1.2492802,-1.3249553,1.8914518,9.400147,-1.7805195,-7.8893247
1032,2026-05-11 16:16:56.397220,1.2492802,-1.3249553,1.8914518,9.400147,-1.7805195,-7.8893247
1033,2026-05-11 16:16:56.400355,1.2492802,-1.3249553,1.8914518,9.400147,-1.7805195,-7.8893247
1034,2026-05-11 16:16:56.403051,1.2492802,-1.3249553,1.8914518,9.400147,-1.7805195,-7.8893247
1035,2026-05-11 16:16:56.405644,1.2492802,-1.3249553,1.8914518,9.400147,-1.7805195,-7.8893247
1036,2026-05-11 16:16:56.408445,1.2492802,-1.3249553,1.8914518,9.400147,-1.7805195,-7.8893247
1037,2026-05-11 16:16:56.411313,0.7557758,-1.4188633,1.571799,9.400147,-1.7805195,-7.8893247
1038,2026-05-11 16:16:56.413982,0.7557758,-1.4188633,1.571799,9.400147,-1.7805195,-7.8893247
1039,2026-05-11 16:16:56.417157,0.7557758,-1.4188633,1.571799,9.400147,-1.7805195,-7.8893247
1040,2026-05-11 16:16:56.419967,0.7557758,-1.4188633,1.571799,9.400147,-1.7805195,-7.8893247
1041,2026-05-11 16:16:56.422820,0.7557758,-1.4188633,1.571799,9.411142,-2.0302107,-7.304421
1042,2026-05-11 16:16:56.425564,0.7557758,-1.4188633,1.571799,9.411142,-2.0302107,-7.304421
1043,2026-05-11 16:16:56.428262,0.7557758,-1.4188633,1.571799,9.411142,-2.0302107,-7.304421
1044,2026-05-11 16:16:56.431057,0.7557758,-1.4188633,1.571799,9.390373,-2.4016168,-6.6619434
1045,2026-05-11 16:16:56.434106,0.7557758,-1.4188633,1.571799,9.390373,-2.4016168,-6.6619434
1046,2026-05-11 16:16:56.436922,0.7557758,-1.4188633,1.571799,9.390373,-2.4016168,-6.6619434
1047,2026-05-11 16:16:56.439797,0.7557758,-1.4188633,1.571799,9.390373,-2.4016168,-6.6619434
1048,2026-05-11 16:16:56.442539,0.7557758,-1.4188633,1.571799,9.390373,-2.4016168,-6.6619434
1049,2026-05-11 16:16:56.445132,0.7557758,-1.4188633,1.571799,9.390373,-2.4016168,-6.6619434
1050,2026-05-11 16:16:56.447945,0.7557758,-1.4188633,1.571799,9.390373,-2.4016168,-6.6619434
1051,2026-05-11 16:16:56.451036,0.60442555,-1.5489318,1.1911061,9.390373,-2.4016168,-6.6619434
1052,2026-05-11 16:16:56.453728,0.60442555,-1.5489318,1.1911061,9.390373,-2.4016168,-6.6619434
1053,2026-05-11 16:16:56.456308,0.60442555,-1.5489318,1.1911061,9.390373,-2.4016168,-6.6619434
1054,2026-05-11 16:16:56.458917,0.60442555,-1.5489318,1.1911061,9.390373,-2.4016168,-6.6619434
1055,2026-05-11 16:16:56.461484,0.60442555,-1.5489318,1.1911061,9.390373,-2.4016168,-6.6619434
1056,2026-05-11 16:16:56.464039,0.60442555,-1.5489318,1.1911061,9.390373,-2.4016168,-6.6619434
1057,2026-05-11 16:16:56.467045,0.60442555,-1.5489318,1.1911061,9.390373,-2.4016168,-6.6619434
1058,2026-05-11 16:16:56.469731,0.60442555,-1.5489318,1.1911061,9.390373,-2.4016168,-6.6619434
1059,2026-05-11 16:16:56.472322,0.60442555,-1.5489318,1.1911061,9.390373,-2.4016168,-6.6619434
1060,2026-05-11 16:16:56.475029,0.60442555,-1.5489318,1.1911061,9.390373,-2.4016168,-6.6619434
1061,2026-05-11 16:16:56.477669,0.6325369,-1.6455837,0.6510136,9.067837,-2.7750082,-6.0286293
1062,2026-05-11 16:16:56.480302,0.52637213,-1.7527242,0.16927817,8.184678,-3.0720413,-5.658445
1063,2026-05-11 16:16:56.483505,0.52637213,-1.7527242,0.16927817,8.184678,-3.0720413,-5.658445
1064,2026-05-11 16:16:56.486300,0.52637213,-1.7527242,0.16927817,8.184678,-3.0720413,-5.658445
1065,2026-05-11 16:16:56.488925,0.52637213,-1.7527242,0.16927817,8.184678,-3.0720413,-5.658445
1066,2026-05-11 16:16:56.491601,0.52637213,-1.7527242,0.16927817,8.184678,-3.0720413,-5.658445
1067,2026-05-11 16:16:56.494178,0.52637213,-1.7527242,0.16927817,8.184678,-3.0720413,-5.658445
1068,2026-05-11 16:16:56.496780,0.52637213,-1.7527242,0.16927817,8.184678,-3.0720413,-5.658445
1069,2026-05-11 16:16:56.499787,0.52637213,-1.7527242,0.16927817,8.184678,-3.0720413,-5.658445
1070,2026-05-11 16:16:56.502556,0.52637213,-1.7527242,0.16927817,8.184678,-3.0720413,-5.658445
1071,2026-05-11 16:16:56.505271,0.52637213,-1.7527242,0.16927817,8.184678,-3.0720413,-5.658445
1072,2026-05-11 16:16:56.507842,0.52637213,-1.7527242,0.16927817,8.184678,-3.0720413,-5.658445
1073,2026-05-11 16:16:56.510519,0.3137988,-1.8423026,-0.10835998,7.0478578,-3.0109549,-5.3575935
1074,2026-05-11 16:16:56.513077,0.3137988,-1.8423026,-0.10835998,7.0478578,-3.0109549,-5.3575935
1075,2026-05-11 16:16:56.516206,0.3137988,-1.8423026,-0.10835998,7.0478578,-3.0109549,-5.3575935
1076,2026-05-11 16:16:56.518943,0.3137988,-1.8423026,-0.10835998,7.0478578,-3.0109549,-5.3575935
1077,2026-05-11 16:16:56.521767,0.3137988,-1.8423026,-0.10835998,5.1460814,-2.3200662,-4.7731485
1078,2026-05-11 16:16:56.524611,-0.00085370836,-1.923649,-0.33715382,5.1460814,-2.3200662,-4.7731485
1079,2026-05-11 16:16:56.527306,-0.307335,-2.0425582,-0.2968466,5.1460814,-2.3200662,-4.7731485
1080,2026-05-11 16:16:56.529982,-0.307335,-2.0425582,-0.2968466,5.1460814,-2.3200662,-4.7731485
1081,2026-05-11 16:16:56.533113,-0.307335,-2.0425582,-0.2968466,5.1460814,-2.3200662,-4.7731485
1082,2026-05-11 16:16:56.535880,-0.307335,-2.0425582,-0.2968466,5.1460814,-2.3200662,-4.7731485
1083,2026-05-11 16:16:56.538562,-0.307335,-2.0425582,-0.2968466,5.1460814,-2.3200662,-4.7731485
1084,2026-05-11 16:16:56.541233,-0.307335,-2.0425582,-0.2968466,5.1460814,-2.3200662,-4.7731485
1085,2026-05-11 16:16:56.543799,-0.307335,-2.0425582,-0.2968466,5.1460814,-2.3200662,-4.7731485
1086,2026-05-11 16:16:56.546500,-0.307335,-2.0425582,-0.2968466,5.1460814,-2.3200662,-4.7731485
1087,2026-05-11 16:16:56.549659,-0.307335,-2.0425582,-0.2968466,5.1460814,-2.3200662,-4.7731485
1088,2026-05-11 16:16:56.552530,-0.307335,-2.0425582,-0.2968466,5.1460814,-2.3200662,-4.7731485
1089,2026-05-11 16:16:56.555242,-0.307335,-2.0425582,-0.2968466,5.1460814,-2.3200662,-4.7731485
1090,2026-05-11 16:16:56.557905,-0.307335,-2.0425582,-0.2968466,5.1460814,-2.3200662,-4.7731485
1091,2026-05-11 16:16:56.560508,-0.307335,-2.0425582,-0.2968466,5.1460814,-2.3200662,-4.7731485
1092,2026-05-11 16:16:56.563271,-0.307335,-2.0425582,-0.2968466,3.0251575,-1.6371188,-4.2988114
1093,2026-05-11 16:16:56.566407,-0.307335,-2.0425582,-0.2968466,3.0251575,-1.6371188,-4.2988114
1094,2026-05-11 16:16:56.569159,-0.307335,-2.0425582,-0.2968466,3.0251575,-1.6371188,-4.2988114
1095,2026-05-11 16:16:56.571745,-0.307335,-2.0425582,-0.2968466,3.0251575,-1.6371188,-4.2988114
1096,2026-05-11 16:16:56.574518,-0.307335,-2.0425582,-0.2968466,3.0251575,-1.6371188,-4.2988114
1097,2026-05-11 16:16:56.577235,-0.307335,-2.0425582,-0.2968466,3.0251575,-1.6371188,-4.2988114
1098,2026-05-11 16:16:56.579960,-0.6624167,-2.2450092,0.11695804,0.032375857,-0.09850202,-3.0254629
1099,2026-05-11 16:16:56.583122,-0.6624167,-2.2450092,0.11695804,0.032375857,-0.09850202,-3.0254629
1100,2026-05-11 16:16:56.586169,-0.6624167,-2.2450092,0.11695804,0.032375857,-0.09850202,-3.0254629
1101,2026-05-11 16:16:56.588951,-0.6624167,-2.2450092,0.11695804,0.032375857,-0.09850202,-3.0254629
1102,2026-05-11 16:16:56.591676,-0.6624167,-2.2450092,0.11695804,0.032375857,-0.09850202,-3.0254629
1103,2026-05-11 16:16:56.594267,-0.6624167,-2.2450092,0.11695804,0.032375857,-0.09850202,-3.0254629
1104,2026-05-11 16:16:56.596961,-0.6624167,-2.2450092,0.11695804,0.032375857,-0.09850202,-3.0254629
1105,2026-05-11 16:16:56.599859,-0.6624167,-2.2450092,0.11695804,0.032375857,-0.09850202,-3.0254629
1106,2026-05-11 16:16:56.602545,-0.6624167,-2.2450092,0.11695804,0.032375857,-0.09850202,-3.0254629
1107,2026-05-11 16:16:56.605349,-0.6624167,-2.2450092,0.11695804,0.032375857,-0.09850202,-3.0254629
1108,2026-05-11 16:16:56.607955,-0.6624167,-2.2450092,0.11695804,0.032375857,-0.09850202,-3.0254629
1109,2026-05-11 16:16:56.610553,-0.6624167,-2.2450092,0.11695804,0.032375857,-0.09850202,-3.0254629
1110,2026-05-11 16:16:56.613278,-0.6624167,-2.2450092,0.11695804,0.032375857,-0.09850202,-3.0254629
1111,2026-05-11 16:16:56.616315,-0.6624167,-2.2450092,0.11695804,-0.86666507,0.8388707,-2.2316434
1112,2026-05-11 16:16:56.619212,-0.7648007,-2.3640404,0.52033526,-0.86666507,0.8388707,-2.2316434
1113,2026-05-11 16:16:56.621956,-0.7251033,-2.405445,0.88992995,-0.86666507,0.8388707,-2.2316434
1114,2026-05-11 16:16:56.624784,-0.7251033,-2.405445,0.88992995,-0.86666507,0.8388707,-2.2316434
1115,2026-05-11 16:16:56.627660,-0.5733261,-2.4052014,1.0935394,-0.6021604,1.6372715,-0.8503244
1116,2026-05-11 16:16:56.630400,-0.5733261,-2.4052014,1.0935394,-0.6021604,1.6372715,-0.8503244
1117,2026-05-11 16:16:56.633613,-0.5733261,-2.4052014,1.0935394,-0.6021604,1.6372715,-0.8503244
1118,2026-05-11 16:16:56.636432,-0.5733261,-2.4052014,1.0935394,-0.6021604,1.6372715,-0.8503244
1119,2026-05-11 16:16:56.639091,-0.5733261,-2.4052014,1.0935394,-0.6021604,1.6372715,-0.8503244
1120,2026-05-11 16:16:56.641839,-0.5733261,-2.4052014,1.0935394,-0.6021604,1.6372715,-0.8503244
1121,2026-05-11 16:16:56.644465,-0.5733261,-2.4052014,1.0935394,-0.6021604,1.6372715,-0.8503244
1122,2026-05-11 16:16:56.647209,-0.5733261,-2.4052014,1.0935394,-0.6021604,1.6372715,-0.8503244
1123,2026-05-11 16:16:56.650142,-0.5733261,-2.4052014,1.0935394,-0.6021604,1.6372715,-0.8503244
1124,2026-05-11 16:16:56.653005,-0.41539007,-2.4242268,0.95292145,-0.6021604,1.6372715,-0.8503244
1125,2026-05-11 16:16:56.655642,-0.41539007,-2.4242268,0.95292145,0.05467244,2.065641,-0.27351493
1126,2026-05-11 16:16:56.658313,-0.41539007,-2.4242268,0.95292145,0.05467244,2.065641,-0.27351493
1127,2026-05-11 16:16:56.660934,-0.41539007,-2.4242268,0.95292145,0.05467244,2.065641,-0.27351493
1128,2026-05-11 16:16:56.663450,-0.41539007,-2.4242268,0.95292145,0.05467244,2.065641,-0.27351493
1129,2026-05-11 16:16:56.666445,-0.41539007,-2.4242268,0.95292145,0.05467244,2.065641,-0.27351493
1130,2026-05-11 16:16:56.669169,-0.41539007,-2.4242268,0.95292145,0.05467244,2.065641,-0.27351493
1131,2026-05-11 16:16:56.671732,-0.41539007,-2.4242268,0.95292145,0.05467244,2.065641,-0.27351493
1132,2026-05-11 16:16:56.674276,-0.41539007,-2.4242268,0.95292145,0.05467244,2.065641,-0.27351493
1133,2026-05-11 16:16:56.677026,-0.41539007,-2.4242268,0.95292145,0.17379116,2.3113613,-0.11499538
1134,2026-05-11 16:16:56.679586,-0.41539007,-2.4242268,0.95292145,0.17379116,2.3113613,-0.11499538
1135,2026-05-11 16:16:56.682528,-0.41539007,-2.4242268,0.95292145,0.17379116,2.3113613,-0.11499538
1136,2026-05-11 16:16:56.685333,-0.41539007,-2.4242268,0.95292145,0.17379116,2.3113613,-0.11499538
1137,2026-05-11 16:16:56.687908,-0.41539007,-2.4242268,0.95292145,0.17379116,2.3113613,-0.11499538
1138,2026-05-11 16:16:56.690467,-0.41539007,-2.4242268,0.95292145,0.17379116,2.3113613,-0.11499538
1139,2026-05-11 16:16:56.693165,-0.41539007,-2.4242268,0.95292145,0.17379116,2.3113613,-0.11499538
1140,2026-05-11 16:16:56.695722,-0.32715324,-2.441545,0.7672399,0.17379116,2.3113613,-0.11499538
1141,2026-05-11 16:16:56.698421,-0.32715324,-2.441545,0.7672399,0.17379116,2.3113613,-0.11499538
1142,2026-05-11 16:16:56.701366,-0.32715324,-2.441545,0.7672399,0.17379116,2.3113613,-0.11499538
1143,2026-05-11 16:16:56.704021,-0.32715324,-2.441545,0.7672399,0.17379116,2.3113613,-0.11499538
1144,2026-05-11 16:16:56.706709,-0.32715324,-2.441545,0.7672399,0.17379116,2.3113613,-0.11499538
1145,2026-05-11 16:16:56.709293,-0.32715324,-2.441545,0.7672399,0.17379116,2.3113613,-0.11499538
1146,2026-05-11 16:16:56.711912,-0.32715324,-2.441545,0.7672399,0.17379116,2.3113613,-0.11499538
1147,2026-05-11 16:16:56.714513,-0.32715324,-2.441545,0.7672399,0.17379116,2.3113613,-0.11499538
1148,2026-05-11 16:16:56.717443,-0.32715324,-2.441545,0.7672399,0.17379116,2.3113613,-0.11499538
1149,2026-05-11 16:16:56.720158,-0.32715324,-2.441545,0.7672399,0.17379116,2.3113613,-0.11499538
1150,2026-05-11 16:16:56.722726,-0.32715324,-2.441545,0.7672399,0.17379116,2.3113613,-0.11499538
1151,2026-05-11 16:16:56.725428,-0.32715324,-2.441545,0.7672399,0.17928895,3.0477595,0.27687466
1152,2026-05-11 16:16:56.728144,-0.45301422,-2.2239103,-0.1372641,-0.22052236,3.4997997,0.6730208
1153,2026-05-11 16:16:56.730751,-0.45301422,-2.2239103,-0.1372641,-0.22052236,3.4997997,0.6730208
1154,2026-05-11 16:16:56.734005,-0.45301422,-2.2239103,-0.1372641,-0.22052236,3.4997997,0.6730208
1155,2026-05-11 16:16:56.736859,-0.45301422,-2.2239103,-0.1372641,-0.22052236,3.4997997,0.6730208
1156,2026-05-11 16:16:56.739499,-0.45301422,-2.2239103,-0.1372641,-0.22052236,3.4997997,0.6730208
1157,2026-05-11 16:16:56.742271,-0.45301422,-2.2239103,-0.1372641,-0.9992228,3.7186422,1.2301298
1158,2026-05-11 16:16:56.744906,-0.45301422,-2.2239103,-0.1372641,-0.9992228,3.7186422,1.2301298
1159,2026-05-11 16:16:56.747479,-0.45301422,-2.2239103,-0.1372641,-0.9992228,3.7186422,1.2301298
1160,2026-05-11 16:16:56.750802,-0.45301422,-2.2239103,-0.1372641,-0.9992228,3.7186422,1.2301298
1161,2026-05-11 16:16:56.753631,-0.45301422,-2.2239103,-0.1372641,-0.9992228,3.7186422,1.2301298
1162,2026-05-11 16:16:56.756388,-0.45301422,-2.2239103,-0.1372641,-0.9992228,3.7186422,1.2301298
1163,2026-05-11 16:16:56.759091,-0.45301422,-2.2239103,-0.1372641,-0.9992228,3.7186422,1.2301298
1164,2026-05-11 16:16:56.761867,-0.45301422,-2.2239103,-0.1372641,-0.9992228,3.7186422,1.2301298
1165,2026-05-11 16:16:56.764495,-0.45301422,-2.2239103,-0.1372641,-0.9992228,3.7186422,1.2301298
1166,2026-05-11 16:16:56.767831,-0.45301422,-2.2239103,-0.1372641,-0.9992228,3.7186422,1.2301298
1167,2026-05-11 16:16:56.770727,-0.6799787,-1.9008425,-0.6158896,-3.0204232,3.9376373,2.3721426
1168,2026-05-11 16:16:56.773358,-0.6799787,-1.9008425,-0.6158896,-3.0204232,3.9376373,2.3721426
1169,2026-05-11 16:16:56.775933,-0.6799787,-1.9008425,-0.6158896,-3.0204232,3.9376373,2.3721426
1170,2026-05-11 16:16:56.778787,-0.6799787,-1.9008425,-0.6158896,-3.0204232,3.9376373,2.3721426
1171,2026-05-11 16:16:56.781413,-0.6799787,-1.9008425,-0.6158896,-3.0204232,3.9376373,2.3721426
1172,2026-05-11 16:16:56.784821,-0.6433302,-1.7303449,-0.667356,-3.0204232,3.9376373,2.3721426
1173,2026-05-11 16:16:56.787688,-0.61509687,-1.5860682,-0.6843692,-4.321566,4.181831,2.8389962
1174,2026-05-11 16:16:56.790418,-0.61509687,-1.5860682,-0.6843692,-4.321566,4.181831,2.8389962
1175,2026-05-11 16:16:56.793134,-0.63125634,-1.5387483,-0.67656386,-5.148983,4.3527203,3.100141
1176,2026-05-11 16:16:56.795762,-0.63125634,-1.5387483,-0.67656386,-5.148983,4.3527203,3.100141
1177,2026-05-11 16:16:56.798604,-0.67363685,-1.4391693,-0.51722527,-7.1393347,4.628068,3.7994292
1178,2026-05-11 16:16:56.802281,-0.3855713,-1.3564206,-0.17604686,-8.246528,4.68946,4.245666
1179,2026-05-11 16:16:56.805153,-0.3855713,-1.3564206,-0.17604686,-8.984453,4.5909576,4.54667
1180,2026-05-11 16:16:56.807771,-0.3855713,-1.3564206,-0.17604686,-8.984453,4.5909576,4.54667
1181,2026-05-11 16:16:56.810360,-0.3855713,-1.3564206,-0.17604686,-8.984453,4.5909576,4.54667
1182,2026-05-11 16:16:56.813206,-0.3855713,-1.3564206,-0.17604686,-8.984453,4.5909576,4.54667
1183,2026-05-11 16:16:56.815930,-0.3855713,-1.3564206,-0.17604686,-8.984453,4.5909576,4.54667
1184,2026-05-11 16:16:56.819429,-0.3855713,-1.3564206,-0.17604686,-8.984453,4.5909576,4.54667
1185,2026-05-11 16:16:56.822309,-0.3855713,-1.3564206,-0.17604686,-8.984453,4.5909576,4.54667
1186,2026-05-11 16:16:56.825005,-0.3855713,-1.3564206,-0.17604686,-8.984453,4.5909576,4.54667
1187,2026-05-11 16:16:56.827666,-0.3855713,-1.3564206,-0.17604686,-8.984453,4.5909576,4.54667
1188,2026-05-11 16:16:56.830271,-0.3855713,-1.3564206,-0.17604686,-8.984453,4.5909576,4.54667
1189,2026-05-11 16:16:56.833462,-0.3855713,-1.3564206,-0.17604686,-8.984453,4.5909576,4.54667
1190,2026-05-11 16:16:56.836211,-0.3855713,-1.3564206,-0.17604686,-8.984453,4.5909576,4.54667
1191,2026-05-11 16:16:56.839016,-0.3855713,-1.3564206,-0.17604686,-8.984453,4.5909576,4.54667
1192,2026-05-11 16:16:56.841794,-0.3855713,-1.3564206,-0.17604686,-8.984453,4.5909576,4.54667
1193,2026-05-11 16:16:56.844501,-0.3855713,-1.3564206,-0.17604686,-8.984453,4.5909576,4.54667
1194,2026-05-11 16:16:56.847207,-0.3855713,-1.3564206,-0.17604686,-8.984453,4.5909576,4.54667
1195,2026-05-11 16:16:56.850267,-0.3855713,-1.3564206,-0.17604686,-8.984453,4.5909576,4.54667
1196,2026-05-11 16:16:56.852995,-0.3855713,-1.3564206,-0.17604686,-10.148457,3.7658315,4.8731775
1197,2026-05-11 16:16:56.855684,-0.3855713,-1.3564206,-0.17604686,-10.148457,3.7658315,4.8731775
1198,2026-05-11 16:16:56.858388,-0.3855713,-1.3564206,-0.17604686,-10.148457,3.7658315,4.8731775
1199,2026-05-11 16:16:56.861117,-0.3855713,-1.3564206,-0.17604686,-10.148457,3.7658315,4.8731775
1200,2026-05-11 16:16:56.863690,-0.3855713,-1.3564206,-0.17604686,-10.148457,3.7658315,4.8731775
1201,2026-05-11 16:16:56.866629,-0.3855713,-1.3564206,-0.17604686,-10.148457,3.7658315,4.8731775
1202,2026-05-11 16:16:56.869366,-0.3855713,-1.3564206,-0.17604686,-10.148457,3.7658315,4.8731775
1203,2026-05-11 16:16:56.871940,-0.3855713,-1.3564206,-0.17604686,-10.148457,3.7658315,4.8731775
1204,2026-05-11 16:16:56.874521,-0.3855713,-1.3564206,-0.17604686,-10.148457,3.7658315,4.8731775
1205,2026-05-11 16:16:56.877444,0.22952558,-1.1780565,0.3234945,-10.148457,3.7658315,4.8731775
1206,2026-05-11 16:16:56.880353,0.22952558,-1.1780565,0.3234945,-10.290483,2.982855,4.744896
1207,2026-05-11 16:16:56.883485,0.22952558,-1.1780565,0.3234945,-10.290483,2.982855,4.744896
1208,2026-05-11 16:16:56.886369,0.7458362,-0.89419854,0.86767256,-10.290483,2.982855,4.744896
1209,2026-05-11 16:16:56.889095,1.0931736,-0.6240608,1.2894655,-10.004751,1.9031507,4.3501244
1210,2026-05-11 16:16:56.891749,1.1314075,-0.5274698,1.4203877,-10.004751,1.9031507,4.3501244
1211,2026-05-11 16:16:56.894490,1.1314075,-0.5274698,1.4203877,-10.004751,1.9031507,4.3501244
1212,2026-05-11 16:16:56.897104,1.1314075,-0.5274698,1.4203877,-10.004751,1.9031507,4.3501244
1213,2026-05-11 16:16:56.900163,1.1314075,-0.5274698,1.4203877,-10.004751,1.9031507,4.3501244
1214,2026-05-11 16:16:56.902951,1.1314075,-0.5274698,1.4203877,-10.004751,1.9031507,4.3501244
1215,2026-05-11 16:16:56.905692,1.1314075,-0.5274698,1.4203877,-10.004751,1.9031507,4.3501244
1216,2026-05-11 16:16:56.908299,1.1314075,-0.5274698,1.4203877,-10.004751,1.9031507,4.3501244
1217,2026-05-11 16:16:56.911118,1.1314075,-0.5274698,1.4203877,-9.579284,1.1756102,3.8779254
1218,2026-05-11 16:16:56.913730,1.1314075,-0.5274698,1.4203877,-9.579284,1.1756102,3.8779254
1219,2026-05-11 16:16:56.916782,1.1314075,-0.5274698,1.4203877,-9.579284,1.1756102,3.8779254
1220,2026-05-11 16:16:56.919591,1.1314075,-0.5274698,1.4203877,-9.579284,1.1756102,3.8779254
1221,2026-05-11 16:16:56.922178,1.1314075,-0.5274698,1.4203877,-9.579284,1.1756102,3.8779254
1222,2026-05-11 16:16:56.924755,1.1314075,-0.5274698,1.4203877,-9.579284,1.1756102,3.8779254
1223,2026-05-11 16:16:56.927495,1.1314075,-0.5274698,1.4203877,-9.579284,1.1756102,3.8779254
1224,2026-05-11 16:16:56.930086,1.1314075,-0.5274698,1.4203877,-9.579284,1.1756102,3.8779254
1225,2026-05-11 16:16:56.933236,1.1314075,-0.5274698,1.4203877,-9.579284,1.1756102,3.8779254
1226,2026-05-11 16:16:56.936116,1.1314075,-0.5274698,1.4203877,-9.579284,1.1756102,3.8779254
1227,2026-05-11 16:16:56.938912,1.0791484,-0.50905406,1.425571,-9.469633,1.0483974,3.749491
1228,2026-05-11 16:16:56.941613,1.0791484,-0.50905406,1.425571,-9.469633,1.0483974,3.749491
1229,2026-05-11 16:16:56.944318,1.0791484,-0.50905406,1.425571,-9.469633,1.0483974,3.749491
1230,2026-05-11 16:16:56.947015,1.0791484,-0.50905406,1.425571,-9.469633,1.0483974,3.749491
1231,2026-05-11 16:16:56.950181,1.0791484,-0.50905406,1.425571,-9.469633,1.0483974,3.749491
1232,2026-05-11 16:16:56.972304,1.0791484,-0.50905406,1.425571,-9.469633,1.0483974,3.749491
1233,2026-05-11 16:16:56.978602,1.0791484,-0.50905406,1.425571,-9.469633,1.0483974,3.749491
1234,2026-05-11 16:16:56.982841,1.0791484,-0.50905406,1.425571,-9.469633,1.0483974,3.749491
1235,2026-05-11 16:16:56.992416,1.0791484,-0.50905406,1.425571,-9.320429,1.0348058,3.684281
1236,2026-05-11 16:16:56.995654,1.0791484,-0.50905406,1.425571,-9.320429,1.0348058,3.684281
1237,2026-05-11 16:16:56.999412,1.0422559,-0.4200855,1.5210644,-9.320429,1.0348058,3.684281
1238,2026-05-11 16:16:57.002465,1.0422559,-0.4200855,1.5210644,-9.320429,1.0348058,3.684281
1239,2026-05-11 16:16:57.005604,1.0422559,-0.4200855,1.5210644,-9.320429,1.0348058,3.684281
1240,2026-05-11 16:16:57.008528,1.0422559,-0.4200855,1.5210644,-9.320429,1.0348058,3.684281
1241,2026-05-11 16:16:57.011562,1.0422559,-0.4200855,1.5210644,-9.320429,1.0348058,3.684281
1242,2026-05-11 16:16:57.014653,1.0422559,-0.4200855,1.5210644,-9.320429,1.0348058,3.684281
1243,2026-05-11 16:16:57.018404,1.0422559,-0.4200855,1.5210644,-9.320429,1.0348058,3.684281
1244,2026-05-11 16:16:57.021391,1.0422559,-0.4200855,1.5210644,-9.21704,0.991587,3.6824484
1245,2026-05-11 16:16:57.024224,1.0422559,-0.4200855,1.5210644,-9.21704,0.991587,3.6824484
1246,2026-05-11 16:16:57.026946,1.0422559,-0.4200855,1.5210644,-9.21704,0.991587,3.6824484
1247,2026-05-11 16:16:57.029707,1.0422559,-0.4200855,1.5210644,-9.21704,0.991587,3.6824484
1248,2026-05-11 16:16:57.032912,1.0758555,-0.32837284,1.5443585,-9.21704,0.991587,3.6824484
1249,2026-05-11 16:16:57.035854,1.0758555,-0.32837284,1.5443585,-9.21704,0.991587,3.6824484
1250,2026-05-11 16:16:57.038570,1.0758555,-0.32837284,1.5443585,-9.21704,0.991587,3.6824484
1251,2026-05-11 16:16:57.041182,1.0758555,-0.32837284,1.5443585,-9.21704,0.991587,3.6824484
1252,2026-05-11 16:16:57.043939,1.0758555,-0.32837284,1.5443585,-9.21704,0.991587,3.6824484
1253,2026-05-11 16:16:57.046525,1.0758555,-0.32837284,1.5443585,-9.21704,0.991587,3.6824484
1254,2026-05-11 16:16:57.049694,1.0758555,-0.32837284,1.5443585,-9.21704,0.991587,3.6824484
1255,2026-05-11 16:16:57.052718,1.0758555,-0.32837284,1.5443585,-9.21704,0.991587,3.6824484
1256,2026-05-11 16:16:57.055421,1.0758555,-0.32837284,1.5443585,-9.21704,0.991587,3.6824484
1257,2026-05-11 16:16:57.058143,1.0758555,-0.32837284,1.5443585,-9.21704,0.991587,3.6824484
1258,2026-05-11 16:16:57.060807,1.0758555,-0.32837284,1.5443585,-9.21704,0.991587,3.6824484
1259,2026-05-11 16:16:57.063482,1.1121991,-0.3064203,1.4423403,-9.145569,0.6256787,3.5810447
1260,2026-05-11 16:16:57.066630,1.1121991,-0.3064203,1.4423403,-9.145569,0.6256787,3.5810447
1261,2026-05-11 16:16:57.069345,1.1121991,-0.3064203,1.4423403,-9.145569,0.6256787,3.5810447
1262,2026-05-11 16:16:57.072023,1.1121991,-0.3064203,1.4423403,-9.145569,0.6256787,3.5810447
1263,2026-05-11 16:16:57.074698,1.1121991,-0.3064203,1.4423403,-9.145569,0.6256787,3.5810447
1264,2026-05-11 16:16:57.077320,1.1121991,-0.3064203,1.4423403,-9.145569,0.6256787,3.5810447
1265,2026-05-11 16:16:57.080131,1.1121991,-0.3064203,1.4423403,-9.145569,0.6256787,3.5810447
1266,2026-05-11 16:16:57.083161,1.1425056,-0.2502585,1.393435,-9.275989,0.46792278,3.5112534
1267,2026-05-11 16:16:57.085983,0.9856673,-0.45258737,1.7588221,-9.275989,0.46792278,3.5112534
1268,2026-05-11 16:16:57.088733,1.0164617,-0.500578,2.1580527,-7.606189,-0.11453723,3.7633882
1269,2026-05-11 16:16:57.091334,1.0164617,-0.500578,2.1580527,-7.606189,-0.11453723,3.7633882
1270,2026-05-11 16:16:57.094203,1.0164617,-0.500578,2.1580527,-7.606189,-0.11453723,3.7633882
1271,2026-05-11 16:16:57.096843,1.0164617,-0.500578,2.1580527,-7.606189,-0.11453723,3.7633882
1272,2026-05-11 16:16:57.099813,1.0164617,-0.500578,2.1580527,-7.606189,-0.11453723,3.7633882
1273,2026-05-11 16:16:57.102736,1.0164617,-0.500578,2.1580527,-7.606189,-0.11453723,3.7633882
1274,2026-05-11 16:16:57.105379,1.0164617,-0.500578,2.1580527,-6.745938,-0.4503604,3.7082574
1275,2026-05-11 16:16:57.108242,1.0164617,-0.500578,2.1580527,-6.745938,-0.4503604,3.7082574
1276,2026-05-11 16:16:57.110861,1.0164617,-0.500578,2.1580527,-6.745938,-0.4503604,3.7082574
1277,2026-05-11 16:16:57.113477,1.0164617,-0.500578,2.1580527,-6.745938,-0.4503604,3.7082574
1278,2026-05-11 16:16:57.116569,1.0164617,-0.500578,2.1580527,-6.745938,-0.4503604,3.7082574
1279,2026-05-11 16:16:57.119256,1.0164617,-0.500578,2.1580527,-6.745938,-0.4503604,3.7082574
1280,2026-05-11 16:16:57.121970,1.0164617,-0.500578,2.1580527,-6.745938,-0.4503604,3.7082574
1281,2026-05-11 16:16:57.124707,1.0164617,-0.500578,2.1580527,-6.745938,-0.4503604,3.7082574
1282,2026-05-11 16:16:57.127344,1.0164617,-0.500578,2.1580527,-6.745938,-0.4503604,3.7082574
