id,timestamp,acc_x,acc_y,acc_z,gyro_x,gyro_y,gyro_z
1,2026-05-11 16:07:05.945699,-0.28373605,0.84102464,1.1165895,-0.21639901,-3.142749,-0.79320854
2,2026-05-11 16:07:05.955894,-0.28373605,0.84102464,1.1165895,-0.21639901,-3.142749,-0.79320854
3,2026-05-11 16:07:05.958944,-0.28373605,0.84102464,1.1165895,-0.21639901,-3.142749,-0.79320854
4,2026-05-11 16:07:05.961945,-0.28373605,0.84102464,1.1165895,-0.21639901,-3.142749,-0.79320854
5,2026-05-11 16:07:05.964747,-0.28373605,0.84102464,1.1165895,-0.21639901,-3.142749,-0.79320854
6,2026-05-11 16:07:05.967805,-0.28373605,0.84102464,1.1165895,-0.21639901,-3.142749,-0.79320854
7,2026-05-11 16:07:05.970751,-0.28373605,0.84102464,1.1165895,-0.21639901,-3.142749,-0.79320854
8,2026-05-11 16:07:05.973297,-0.28373605,0.84102464,1.1165895,-0.21639901,-3.142749,-0.79320854
9,2026-05-11 16:07:05.976201,-0.28373605,0.84102464,1.1165895,-0.21639901,-3.142749,-0.79320854
10,2026-05-11 16:07:05.978857,-0.28373605,0.84102464,1.1165895,-0.21639901,-3.142749,-0.79320854
11,2026-05-11 16:07:05.981531,-0.28373605,0.84102464,1.1165895,-0.21639901,-3.142749,-0.79320854
12,2026-05-11 16:07:05.984632,-0.28373605,0.84102464,1.1165895,-0.21639901,-3.142749,-0.79320854
13,2026-05-11 16:07:05.987452,-0.28373605,0.84102464,1.1165895,-0.21639901,-3.142749,-0.79320854
14,2026-05-11 16:07:05.990089,-0.28373605,0.84102464,1.1165895,-0.21639901,-3.142749,-0.79320854
15,2026-05-11 16:07:05.992896,-0.28373605,0.84102464,1.1165895,-0.21639901,-3.142749,-0.79320854
16,2026-05-11 16:07:05.995468,-0.28373605,0.84102464,1.1165895,-0.21639901,-3.142749,-0.79320854
17,2026-05-11 16:07:05.998028,-0.28373605,0.84102464,1.1165895,-0.21639901,-3.142749,-0.79320854
18,2026-05-11 16:07:06.000876,-0.28373605,0.84102464,1.1165895,-0.21639901,-3.142749,-0.79320854
19,2026-05-11 16:07:06.003734,-0.28373605,0.84102464,1.1165895,-0.21639901,-3.142749,-0.79320854
20,2026-05-11 16:07:06.006359,-0.28373605,0.84102464,1.1165895,-0.21639901,-3.142749,-0.79320854
21,2026-05-11 16:07:06.008911,-0.28373605,0.84102464,1.1165895,-0.21639901,-3.142749,-0.79320854
22,2026-05-11 16:07:06.011465,-0.28373605,0.84102464,1.1165895,-0.21639901,-3.142749,-0.79320854
23,2026-05-11 16:07:06.014193,-0.28373605,0.84102464,1.1165895,-0.21639901,-3.142749,-0.79320854
24,2026-05-11 16:07:06.017320,-0.28373605,0.84102464,1.1165895,-0.21639901,-3.142749,-0.79320854
25,2026-05-11 16:07:06.020219,-0.28373605,0.84102464,1.1165895,-0.21639901,-3.142749,-0.79320854
26,2026-05-11 16:07:06.022902,-0.28373605,0.84102464,1.1165895,-0.21639901,-3.142749,-0.79320854
27,2026-05-11 16:07:06.025458,-0.28373605,0.84102464,1.1165895,-0.21639901,-3.142749,-0.79320854
28,2026-05-11 16:07:06.028065,-0.28373605,0.84102464,1.1165895,-0.21639901,-3.142749,-0.79320854
29,2026-05-11 16:07:06.030606,-0.28373605,0.84102464,1.1165895,-0.21639901,-3.142749,-0.79320854
30,2026-05-11 16:07:06.033175,-0.28373605,0.84102464,1.1165895,-0.21639901,-3.142749,-0.79320854
31,2026-05-11 16:07:06.036434,-0.28373605,0.84102464,1.1165895,-0.21639901,-3.142749,-0.79320854
32,2026-05-11 16:07:06.039161,-0.28373605,0.84102464,1.1165895,-0.21639901,-3.142749,-0.79320854
33,2026-05-11 16:07:06.041941,-0.28373605,0.84102464,1.1165895,-0.21639901,-3.142749,-0.79320854
34,2026-05-11 16:07:06.044525,-0.28373605,0.84102464,1.1165895,-0.21639901,-3.142749,-0.79320854
35,2026-05-11 16:07:06.047096,-0.28373605,0.84102464,1.1165895,-0.21639901,-3.142749,-0.79320854
36,2026-05-11 16:07:06.049792,-0.28373605,0.84102464,1.1165895,-0.21639901,-3.142749,-0.79320854
37,2026-05-11 16:07:06.052928,-0.28373605,0.84102464,1.1165895,-0.21639901,-3.142749,-0.79320854
38,2026-05-11 16:07:06.055735,-0.28373605,0.84102464,1.1165895,-0.21639901,-3.142749,-0.79320854
39,2026-05-11 16:07:06.058353,-0.28373605,0.84102464,1.1165895,-0.21639901,-3.142749,-0.79320854
40,2026-05-11 16:07:06.060944,-0.28373605,0.84102464,1.1165895,-0.21639901,-3.142749,-0.79320854
41,2026-05-11 16:07:06.063718,-0.28373605,0.84102464,1.1165895,-0.21639901,-3.142749,-0.79320854
42,2026-05-11 16:07:06.066391,-0.28373605,0.84102464,1.1165895,-0.21639901,-3.142749,-0.79320854
43,2026-05-11 16:07:06.069668,-0.28373605,0.84102464,1.1165895,-0.21639901,-3.142749,-0.79320854
44,2026-05-11 16:07:06.072481,-0.44039157,0.9954239,0.87877077,-0.21639901,-3.142749,-0.79320854
45,2026-05-11 16:07:06.075189,-0.44039157,0.9954239,0.87877077,-0.21639901,-3.142749,-0.79320854
46,2026-05-11 16:07:06.077751,-0.44039157,0.9954239,0.87877077,-0.21639901,-3.142749,-0.79320854
47,2026-05-11 16:07:06.080506,-0.44039157,0.9954239,0.87877077,-0.21639901,-3.142749,-0.79320854
48,2026-05-11 16:07:06.083594,-0.44039157,0.9954239,0.87877077,-0.21639901,-3.142749,-0.79320854
49,2026-05-11 16:07:06.086359,-0.44039157,0.9954239,0.87877077,-0.21639901,-3.142749,-0.79320854
50,2026-05-11 16:07:06.088967,-0.48722354,1.1354321,0.84151256,-0.21639901,-3.142749,-0.79320854
51,2026-05-11 16:07:06.091747,-0.48722354,1.1354321,0.84151256,-0.21639901,-3.142749,-0.79320854
52,2026-05-11 16:07:06.094324,-0.48722354,1.1354321,0.84151256,-0.21639901,-3.142749,-0.79320854
53,2026-05-11 16:07:06.096897,-0.48722354,1.1354321,0.84151256,-0.21639901,-3.142749,-0.79320854
54,2026-05-11 16:07:06.099439,-0.48722354,1.1354321,0.84151256,-0.21639901,-3.142749,-0.79320854
55,2026-05-11 16:07:06.102665,-0.48722354,1.1354321,0.84151256,-0.21639901,-3.142749,-0.79320854
56,2026-05-11 16:07:06.105438,-0.48722354,1.1354321,0.84151256,-0.21639901,-3.142749,-0.79320854
57,2026-05-11 16:07:06.108125,-0.48722354,1.1354321,0.84151256,-0.21639901,-3.142749,-0.79320854
58,2026-05-11 16:07:06.110890,-0.48722354,1.1354321,0.84151256,-0.21639901,-3.142749,-0.79320854
59,2026-05-11 16:07:06.113470,-0.48722354,1.1354321,0.84151256,-0.21639901,-3.142749,-0.79320854
60,2026-05-11 16:07:06.134826,-0.11720196,1.5417362,1.7632736,2.3614523,-2.3600779,2.0815234
61,2026-05-11 16:07:06.142215,-0.11720196,1.5417362,1.7632736,2.3614523,-2.3600779,2.0815234
62,2026-05-11 16:07:06.147232,-0.11720196,1.5417362,1.7632736,2.3614523,-2.3600779,2.0815234
63,2026-05-11 16:07:06.154830,-0.11720196,1.5417362,1.7632736,2.3614523,-2.3600779,2.0815234
64,2026-05-11 16:07:06.157573,-0.11720196,1.5417362,1.7632736,2.3614523,-2.3600779,2.0815234
65,2026-05-11 16:07:06.160152,-0.11720196,1.5417362,1.7632736,2.3614523,-2.3600779,2.0815234
66,2026-05-11 16:07:06.162943,-0.11720196,1.5417362,1.7632736,2.3614523,-2.3600779,2.0815234
67,2026-05-11 16:07:06.165537,-0.11720196,1.5417362,1.7632736,2.3614523,-2.3600779,2.0815234
68,2026-05-11 16:07:06.168462,-0.11720196,1.5417362,1.7632736,2.3614523,-2.3600779,2.0815234
69,2026-05-11 16:07:06.171803,-0.11720196,1.5417362,1.7632736,2.3614523,-2.3600779,2.0815234
70,2026-05-11 16:07:06.174468,-0.11720196,1.5417362,1.7632736,2.3614523,-2.3600779,2.0815234
71,2026-05-11 16:07:06.177220,-0.11720196,1.5417362,1.7632736,2.3614523,-2.3600779,2.0815234
72,2026-05-11 16:07:06.179816,-0.11720196,1.5417362,1.7632736,2.3614523,-2.3600779,2.0815234
73,2026-05-11 16:07:06.182492,-0.11720196,1.5417362,1.7632736,2.3614523,-2.3600779,2.0815234
74,2026-05-11 16:07:06.185428,-0.11720196,1.5417362,1.7632736,2.3614523,-2.3600779,2.0815234
75,2026-05-11 16:07:06.188910,-0.11720196,1.5417362,1.7632736,2.3614523,-2.3600779,2.0815234
76,2026-05-11 16:07:06.191687,-0.11720196,1.5417362,1.7632736,2.3614523,-2.3600779,2.0815234
77,2026-05-11 16:07:06.194313,-0.11720196,1.5417362,1.7632736,2.3614523,-2.3600779,2.0815234
78,2026-05-11 16:07:06.196873,-0.11720196,1.5417362,1.7632736,2.3614523,-2.3600779,2.0815234
79,2026-05-11 16:07:06.199644,0.34770322,1.4943554,1.8248626,3.804316,-2.0996966,1.427592
80,2026-05-11 16:07:06.203182,0.34770322,1.4943554,1.8248626,3.804316,-2.0996966,1.427592
81,2026-05-11 16:07:06.206135,0.34770322,1.4943554,1.8248626,3.804316,-2.0996966,1.427592
82,2026-05-11 16:07:06.208740,0.34770322,1.4943554,1.8248626,3.804316,-2.0996966,1.427592
83,2026-05-11 16:07:06.211639,0.34770322,1.4943554,1.8248626,4.7102294,-1.8781052,0.84421575
84,2026-05-11 16:07:06.214379,0.34770322,1.4943554,1.8248626,4.7102294,-1.8781052,0.84421575
85,2026-05-11 16:07:06.217267,0.34770322,1.4943554,1.8248626,4.7102294,-1.8781052,0.84421575
86,2026-05-11 16:07:06.220364,0.34770322,1.4943554,1.8248626,4.7102294,-1.8781052,0.84421575
87,2026-05-11 16:07:06.223068,0.34770322,1.4943554,1.8248626,4.7102294,-1.8781052,0.84421575
88,2026-05-11 16:07:06.225645,0.34770322,1.4943554,1.8248626,4.7102294,-1.8781052,0.84421575
89,2026-05-11 16:07:06.228499,0.34770322,1.4943554,1.8248626,4.7102294,-1.8781052,0.84421575
90,2026-05-11 16:07:06.231080,0.34770322,1.4943554,1.8248626,4.7102294,-1.8781052,0.84421575
91,2026-05-11 16:07:06.234413,0.34770322,1.4943554,1.8248626,4.7102294,-1.8781052,0.84421575
92,2026-05-11 16:07:06.237248,0.34770322,1.4943554,1.8248626,4.7102294,-1.8781052,0.84421575
93,2026-05-11 16:07:06.240149,0.34770322,1.4943554,1.8248626,4.7102294,-1.8781052,0.84421575
94,2026-05-11 16:07:06.242788,0.3413004,1.422949,1.6703414,4.7102294,-1.8781052,0.84421575
95,2026-05-11 16:07:06.245612,0.3413004,1.422949,1.6703414,4.7102294,-1.8781052,0.84421575
96,2026-05-11 16:07:06.248374,0.3413004,1.422949,1.6703414,4.7102294,-1.8781052,0.84421575
97,2026-05-11 16:07:06.251446,0.3413004,1.422949,1.6703414,4.7102294,-1.8781052,0.84421575
98,2026-05-11 16:07:06.254392,0.3413004,1.422949,1.6703414,4.7102294,-1.8781052,0.84421575
99,2026-05-11 16:07:06.257148,0.3413004,1.422949,1.6703414,4.7102294,-1.8781052,0.84421575
100,2026-05-11 16:07:06.259738,0.3413004,1.422949,1.6703414,4.7102294,-1.8781052,0.84421575
101,2026-05-11 16:07:06.262701,0.3413004,1.422949,1.6703414,4.7102294,-1.8781052,0.84421575
102,2026-05-11 16:07:06.265452,0.3413004,1.422949,1.6703414,4.7102294,-1.8781052,0.84421575
103,2026-05-11 16:07:06.268716,0.3413004,1.422949,1.6703414,4.7102294,-1.8781052,0.84421575
104,2026-05-11 16:07:06.271520,0.3413004,1.422949,1.6703414,4.7102294,-1.8781052,0.84421575
105,2026-05-11 16:07:06.274195,0.3413004,1.422949,1.6703414,4.7102294,-1.8781052,0.84421575
106,2026-05-11 16:07:06.276794,0.3413004,1.422949,1.6703414,4.7102294,-1.8781052,0.84421575
107,2026-05-11 16:07:06.279704,0.3413004,1.422949,1.6703414,4.7102294,-1.8781052,0.84421575
108,2026-05-11 16:07:06.282442,0.3413004,1.422949,1.6703414,4.7102294,-1.8781052,0.84421575
109,2026-05-11 16:07:06.285605,0.3413004,1.422949,1.6703414,4.7102294,-1.8781052,0.84421575
110,2026-05-11 16:07:06.288259,0.3413004,1.422949,1.6703414,4.7102294,-1.8781052,0.84421575
111,2026-05-11 16:07:06.291018,0.3413004,1.422949,1.6703414,4.7102294,-1.8781052,0.84421575
112,2026-05-11 16:07:06.293671,0.3413004,1.422949,1.6703414,4.7102294,-1.8781052,0.84421575
113,2026-05-11 16:07:06.296386,0.3413004,1.422949,1.6703414,4.7102294,-1.8781052,0.84421575
114,2026-05-11 16:07:06.298967,0.3413004,1.422949,1.6703414,4.7102294,-1.8781052,0.84421575
115,2026-05-11 16:07:06.302108,0.3413004,1.422949,1.6703414,4.7102294,-1.8781052,0.84421575
116,2026-05-11 16:07:06.304778,0.3413004,1.422949,1.6703414,4.7102294,-1.8781052,0.84421575
117,2026-05-11 16:07:06.308295,0.08549279,1.2895265,1.3217845,4.7102294,-1.8781052,0.84421575
118,2026-05-11 16:07:06.312712,0.08549279,1.2895265,1.3217845,4.7102294,-1.8781052,0.84421575
119,2026-05-11 16:07:06.316056,0.08549279,1.2895265,1.3217845,4.7102294,-1.8781052,0.84421575
120,2026-05-11 16:07:06.319757,0.08549279,1.2895265,1.3217845,4.7102294,-1.8781052,0.84421575
121,2026-05-11 16:07:06.322476,0.08549279,1.2895265,1.3217845,4.7102294,-1.8781052,0.84421575
122,2026-05-11 16:07:06.325079,0.08549279,1.2895265,1.3217845,4.7102294,-1.8781052,0.84421575
123,2026-05-11 16:07:06.327929,0.08549279,1.2895265,1.3217845,4.7102294,-1.8781052,0.84421575
124,2026-05-11 16:07:06.330685,0.08549279,1.2895265,1.3217845,4.7102294,-1.8781052,0.84421575
125,2026-05-11 16:07:06.333958,0.08549279,1.2895265,1.3217845,4.7102294,-1.8781052,0.84421575
126,2026-05-11 16:07:06.336842,0.08549279,1.2895265,1.3217845,4.7102294,-1.8781052,0.84421575
127,2026-05-11 16:07:06.339429,0.08549279,1.2895265,1.3217845,4.7102294,-1.8781052,0.84421575
128,2026-05-11 16:07:06.341991,0.08549279,1.2895265,1.3217845,4.7102294,-1.8781052,0.84421575
129,2026-05-11 16:07:06.344571,0.08549279,1.2895265,1.3217845,4.7102294,-1.8781052,0.84421575
130,2026-05-11 16:07:06.347065,0.08549279,1.2895265,1.3217845,4.7102294,-1.8781052,0.84421575
131,2026-05-11 16:07:06.349803,0.08549279,1.2895265,1.3217845,4.7102294,-1.8781052,0.84421575
132,2026-05-11 16:07:06.353101,0.08549279,1.2895265,1.3217845,4.7102294,-1.8781052,0.84421575
133,2026-05-11 16:07:06.355965,0.08549279,1.2895265,1.3217845,4.7102294,-1.8781052,0.84421575
134,2026-05-11 16:07:06.358549,0.08549279,1.2895265,1.3217845,4.7102294,-1.8781052,0.84421575
135,2026-05-11 16:07:06.361149,0.08549279,1.2895265,1.3217845,4.7102294,-1.8781052,0.84421575
136,2026-05-11 16:07:06.363840,0.08549279,1.2895265,1.3217845,4.7102294,-1.8781052,0.84421575
137,2026-05-11 16:07:06.366441,0.08549279,1.2895265,1.3217845,4.7102294,-1.8781052,0.84421575
138,2026-05-11 16:07:06.369649,0.08549279,1.2895265,1.3217845,4.7102294,-1.8781052,0.84421575
139,2026-05-11 16:07:06.372275,0.08549279,1.2895265,1.3217845,4.7102294,-1.8781052,0.84421575
140,2026-05-11 16:07:06.374808,0.08549279,1.2895265,1.3217845,4.7102294,-1.8781052,0.84421575
141,2026-05-11 16:07:06.377659,0.08549279,1.2895265,1.3217845,4.7102294,-1.8781052,0.84421575
142,2026-05-11 16:07:06.380298,0.08549279,1.2895265,1.3217845,5.6263742,-1.736079,0.30024028
143,2026-05-11 16:07:06.382962,0.08549279,1.2895265,1.3217845,5.6263742,-1.736079,0.30024028
144,2026-05-11 16:07:06.385982,0.08549279,1.2895265,1.3217845,5.6263742,-1.736079,0.30024028
145,2026-05-11 16:07:06.388913,0.08549279,1.2895265,1.3217845,5.6263742,-1.736079,0.30024028
146,2026-05-11 16:07:06.391764,0.08549279,1.2895265,1.3217845,5.6263742,-1.736079,0.30024028
147,2026-05-11 16:07:06.394654,0.08549279,1.2895265,1.3217845,5.6263742,-1.736079,0.30024028
148,2026-05-11 16:07:06.397240,0.08549279,1.2895265,1.3217845,5.6263742,-1.736079,0.30024028
149,2026-05-11 16:07:06.400299,0.08549279,1.2895265,1.3217845,5.6263742,-1.736079,0.30024028
150,2026-05-11 16:07:06.403045,0.08549279,1.2895265,1.3217845,5.6263742,-1.736079,0.30024028
151,2026-05-11 16:07:06.405717,0.08549279,1.2895265,1.3217845,5.6263742,-1.736079,0.30024028
152,2026-05-11 16:07:06.408294,0.08549279,1.2895265,1.3217845,5.6263742,-1.736079,0.30024028
153,2026-05-11 16:07:06.411096,0.08549279,1.2895265,1.3217845,5.6263742,-1.736079,0.30024028
154,2026-05-11 16:07:06.413705,0.08549279,1.2895265,1.3217845,5.6263742,-1.736079,0.30024028
155,2026-05-11 16:07:06.416340,0.08549279,1.2895265,1.3217845,5.6263742,-1.736079,0.30024028
156,2026-05-11 16:07:06.419511,0.08549279,1.2895265,1.3217845,5.6263742,-1.736079,0.30024028
157,2026-05-11 16:07:06.422154,0.08549279,1.2895265,1.3217845,5.6263742,-1.736079,0.30024028
158,2026-05-11 16:07:06.424866,0.08549279,1.2895265,1.3217845,5.6263742,-1.736079,0.30024028
159,2026-05-11 16:07:06.427437,0.08549279,1.2895265,1.3217845,5.6263742,-1.736079,0.30024028
160,2026-05-11 16:07:06.430249,0.08549279,1.2895265,1.3217845,5.6263742,-1.736079,0.30024028
161,2026-05-11 16:07:06.432832,0.08549279,1.2895265,1.3217845,5.6263742,-1.736079,0.30024028
162,2026-05-11 16:07:06.436226,0.08549279,1.2895265,1.3217845,5.6263742,-1.736079,0.30024028
163,2026-05-11 16:07:06.439000,0.08549279,1.2895265,1.3217845,5.6263742,-1.736079,0.30024028
164,2026-05-11 16:07:06.441567,0.08549279,1.2895265,1.3217845,5.6263742,-1.736079,0.30024028
165,2026-05-11 16:07:06.444141,0.08549279,1.2895265,1.3217845,5.6263742,-1.736079,0.30024028
166,2026-05-11 16:07:06.446860,0.08549279,1.2895265,1.3217845,5.6263742,-1.736079,0.30024028
167,2026-05-11 16:07:06.449452,0.08549279,1.2895265,1.3217845,5.6263742,-1.736079,0.30024028
168,2026-05-11 16:07:06.452556,0.08549279,1.2895265,1.3217845,5.6263742,-1.736079,0.30024028
169,2026-05-11 16:07:06.455244,0.08549279,1.2895265,1.3217845,5.6263742,-1.736079,0.30024028
170,2026-05-11 16:07:06.457837,0.08549279,1.2895265,1.3217845,5.6263742,-1.736079,0.30024028
171,2026-05-11 16:07:06.460695,0.08549279,1.2895265,1.3217845,5.6263742,-1.736079,0.30024028
172,2026-05-11 16:07:06.463452,-0.08104131,1.1864107,0.9766424,5.6263742,-1.736079,0.30024028
173,2026-05-11 16:07:06.466170,-0.08104131,1.1864107,0.9766424,5.6263742,-1.736079,0.30024028
174,2026-05-11 16:07:06.469432,-0.08104131,1.1864107,0.9766424,6.0272546,-1.7023287,0.111635625
175,2026-05-11 16:07:06.472122,-0.08104131,1.1864107,0.9766424,6.0272546,-1.7023287,0.111635625
176,2026-05-11 16:07:06.474665,-0.08104131,1.1864107,0.9766424,6.0272546,-1.7023287,0.111635625
177,2026-05-11 16:07:06.477481,-0.08104131,1.1864107,0.9766424,6.0272546,-1.7023287,0.111635625
178,2026-05-11 16:07:06.480012,-0.08104131,1.1864107,0.9766424,6.0272546,-1.7023287,0.111635625
179,2026-05-11 16:07:06.482735,-0.08104131,1.1864107,0.9766424,6.0272546,-1.7023287,0.111635625
180,2026-05-11 16:07:06.485741,-0.08104131,1.1864107,0.9766424,6.0272546,-1.7023287,0.111635625
181,2026-05-11 16:07:06.488512,-0.08104131,1.1864107,0.9766424,6.0272546,-1.7023287,0.111635625
182,2026-05-11 16:07:06.491109,-0.08104131,1.1864107,0.9766424,6.0272546,-1.7023287,0.111635625
183,2026-05-11 16:07:06.493709,-0.08104131,1.1864107,0.9766424,6.0272546,-1.7023287,0.111635625
184,2026-05-11 16:07:06.496363,-0.08104131,1.1864107,0.9766424,6.0272546,-1.7023287,0.111635625
185,2026-05-11 16:07:06.498888,-0.08104131,1.1864107,0.9766424,6.0272546,-1.7023287,0.111635625
186,2026-05-11 16:07:06.502092,-0.08104131,1.1864107,0.9766424,6.0272546,-1.7023287,0.111635625
187,2026-05-11 16:07:06.504776,-0.08104131,1.1864107,0.9766424,6.0272546,-1.7023287,0.111635625
188,2026-05-11 16:07:06.507332,-0.08104131,1.1864107,0.9766424,6.0272546,-1.7023287,0.111635625
189,2026-05-11 16:07:06.509914,-0.08104131,1.1864107,0.9766424,6.0272546,-1.7023287,0.111635625
190,2026-05-11 16:07:06.512436,-0.08104131,1.1864107,0.9766424,6.0272546,-1.7023287,0.111635625
191,2026-05-11 16:07:06.514908,-0.08104131,1.1864107,0.9766424,6.0272546,-1.7023287,0.111635625
192,2026-05-11 16:07:06.517889,-0.08104131,1.1864107,0.9766424,6.0272546,-1.7023287,0.111635625
193,2026-05-11 16:07:06.520444,-0.08104131,1.1864107,0.9766424,6.0272546,-1.7023287,0.111635625
194,2026-05-11 16:07:06.523149,-0.08104131,1.1864107,0.9766424,6.0272546,-1.7023287,0.111635625
195,2026-05-11 16:07:06.525825,-0.08104131,1.1864107,0.9766424,6.0272546,-1.7023287,0.111635625
196,2026-05-11 16:07:06.528365,-0.08104131,1.1864107,0.9766424,6.0272546,-1.7023287,0.111635625
197,2026-05-11 16:07:06.530973,-0.08104131,1.1864107,0.9766424,6.0272546,-1.7023287,0.111635625
198,2026-05-11 16:07:06.534093,-0.08104131,1.1864107,0.9766424,6.1666846,-1.7238617,-0.02321288
199,2026-05-11 16:07:06.537146,-0.08104131,1.1864107,0.9766424,6.1666846,-1.7238617,-0.02321288
200,2026-05-11 16:07:06.539825,-0.08104131,1.1864107,0.9766424,6.1666846,-1.7238617,-0.02321288
201,2026-05-11 16:07:06.542395,-0.08104131,1.1864107,0.9766424,6.1666846,-1.7238617,-0.02321288
202,2026-05-11 16:07:06.545335,-0.08104131,1.1864107,0.9766424,6.1666846,-1.7238617,-0.02321288
203,2026-05-11 16:07:06.547927,-0.08104131,1.1864107,0.9766424,6.1666846,-1.7238617,-0.02321288
204,2026-05-11 16:07:06.551012,-0.08104131,1.1864107,0.9766424,6.1666846,-1.7238617,-0.02321288
205,2026-05-11 16:07:06.553880,-0.08104131,1.1864107,0.9766424,6.1666846,-1.7238617,-0.02321288
206,2026-05-11 16:07:06.556445,-0.08104131,1.1864107,0.9766424,6.1666846,-1.7238617,-0.02321288
207,2026-05-11 16:07:06.559330,-0.08104131,1.1864107,0.9766424,6.1666846,-1.7238617,-0.02321288
208,2026-05-11 16:07:06.561930,-0.08104131,1.1864107,0.9766424,6.1666846,-1.7238617,-0.02321288
209,2026-05-11 16:07:06.564474,-0.08104131,1.1864107,0.9766424,6.1666846,-1.7238617,-0.02321288
210,2026-05-11 16:07:06.567557,-0.08104131,1.1864107,0.9766424,6.1666846,-1.7238617,-0.02321288
211,2026-05-11 16:07:06.570434,-0.08104131,1.1864107,0.9766424,6.1666846,-1.7238617,-0.02321288
212,2026-05-11 16:07:06.573023,-0.08104131,1.1864107,0.9766424,6.1666846,-1.7238617,-0.02321288
213,2026-05-11 16:07:06.575566,-0.08104131,1.1864107,0.9766424,6.1666846,-1.7238617,-0.02321288
214,2026-05-11 16:07:06.578245,-0.08104131,1.1864107,0.9766424,6.1666846,-1.7238617,-0.02321288
215,2026-05-11 16:07:06.580792,-0.08104131,1.1864107,0.9766424,6.1666846,-1.7238617,-0.02321288
216,2026-05-11 16:07:06.583384,-0.11842154,1.1231753,0.67497844,6.1666846,-1.7238617,-0.02321288
217,2026-05-11 16:07:06.586554,-0.11842154,1.1231753,0.67497844,6.1666846,-1.7238617,-0.02321288
218,2026-05-11 16:07:06.589126,-0.11842154,1.1231753,0.67497844,6.1666846,-1.7238617,-0.02321288
219,2026-05-11 16:07:06.591709,-0.11842154,1.1231753,0.67497844,6.1666846,-1.7238617,-0.02321288
220,2026-05-11 16:07:06.594290,-0.11842154,1.1231753,0.67497844,6.1666846,-1.7238617,-0.02321288
221,2026-05-11 16:07:06.596888,-0.11842154,1.1231753,0.67497844,6.1666846,-1.7238617,-0.02321288
222,2026-05-11 16:07:06.599411,-0.11842154,1.1231753,0.67497844,6.1666846,-1.7238617,-0.02321288
223,2026-05-11 16:07:06.602540,-0.11842154,1.1231753,0.67497844,6.1666846,-1.7238617,-0.02321288
224,2026-05-11 16:07:06.605244,-0.11842154,1.1231753,0.67497844,6.1666846,-1.7238617,-0.02321288
225,2026-05-11 16:07:06.607813,-0.11842154,1.1231753,0.67497844,6.1666846,-1.7238617,-0.02321288
226,2026-05-11 16:07:06.610684,-0.11842154,1.1231753,0.67497844,6.1666846,-1.7238617,-0.02321288
227,2026-05-11 16:07:06.613290,-0.11842154,1.1231753,0.67497844,6.1666846,-1.7238617,-0.02321288
228,2026-05-11 16:07:06.615885,-0.11842154,1.1231753,0.67497844,6.1666846,-1.7238617,-0.02321288
229,2026-05-11 16:07:06.618905,-0.11842154,1.1231753,0.67497844,6.1666846,-1.7238617,-0.02321288
230,2026-05-11 16:07:06.621571,-0.11842154,1.1231753,0.67497844,6.1666846,-1.7238617,-0.02321288
231,2026-05-11 16:07:06.624159,-0.11842154,1.1231753,0.67497844,6.1666846,-1.7238617,-0.02321288
232,2026-05-11 16:07:06.626929,-0.11842154,1.1231753,0.67497844,6.1666846,-1.7238617,-0.02321288
233,2026-05-11 16:07:06.629544,-0.11842154,1.1231753,0.67497844,6.1666846,-1.7238617,-0.02321288
234,2026-05-11 16:07:06.632288,-0.11842154,1.1231753,0.67497844,6.1666846,-1.7238617,-0.02321288
235,2026-05-11 16:07:06.635065,-0.09171267,1.0212182,0.33934906,6.1666846,-1.7238617,-0.02321288
236,2026-05-11 16:07:06.638297,-0.09171267,1.0212182,0.33934906,6.1666846,-1.7238617,-0.02321288
237,2026-05-11 16:07:06.640948,-0.09171267,1.0212182,0.33934906,6.1666846,-1.7238617,-0.02321288
238,2026-05-11 16:07:06.643720,-0.09171267,1.0212182,0.33934906,6.037639,-1.6404786,-0.19074267
239,2026-05-11 16:07:06.646465,-0.09171267,1.0212182,0.33934906,6.037639,-1.6404786,-0.19074267
240,2026-05-11 16:07:06.649088,-0.09171267,1.0212182,0.33934906,6.037639,-1.6404786,-0.19074267
241,2026-05-11 16:07:06.651759,-0.09171267,1.0212182,0.33934906,6.037639,-1.6404786,-0.19074267
242,2026-05-11 16:07:06.654998,-0.09171267,1.0212182,0.33934906,6.037639,-1.6404786,-0.19074267
243,2026-05-11 16:07:06.657909,-0.09171267,1.0212182,0.33934906,6.037639,-1.6404786,-0.19074267
244,2026-05-11 16:07:06.660487,-0.09171267,1.0212182,0.33934906,6.037639,-1.6404786,-0.19074267
245,2026-05-11 16:07:06.663045,-0.09171267,1.0212182,0.33934906,6.037639,-1.6404786,-0.19074267
246,2026-05-11 16:07:06.665698,-0.09171267,1.0212182,0.33934906,6.037639,-1.6404786,-0.19074267
247,2026-05-11 16:07:06.668587,-0.09171267,1.0212182,0.33934906,6.037639,-1.6404786,-0.19074267
248,2026-05-11 16:07:06.671269,-0.09171267,1.0212182,0.33934906,6.037639,-1.6404786,-0.19074267
249,2026-05-11 16:07:06.674000,-0.09171267,1.0212182,0.33934906,6.037639,-1.6404786,-0.19074267
250,2026-05-11 16:07:06.676584,-0.09171267,1.0212182,0.33934906,6.037639,-1.6404786,-0.19074267
251,2026-05-11 16:07:06.679394,-0.09171267,1.0212182,0.33934906,6.037639,-1.6404786,-0.19074267
252,2026-05-11 16:07:06.682109,-0.09171267,1.0212182,0.33934906,6.037639,-1.6404786,-0.19074267
253,2026-05-11 16:07:06.685067,-0.09171267,1.0212182,0.33934906,6.037639,-1.6404786,-0.19074267
254,2026-05-11 16:07:06.687873,-0.09171267,1.0212182,0.33934906,6.037639,-1.6404786,-0.19074267
255,2026-05-11 16:07:06.690571,-0.09171267,1.0212182,0.33934906,6.037639,-1.6404786,-0.19074267
256,2026-05-11 16:07:06.693144,-0.09171267,1.0212182,0.33934906,6.037639,-1.6404786,-0.19074267
257,2026-05-11 16:07:06.695901,-0.09171267,1.0212182,0.33934906,6.037639,-1.6404786,-0.19074267
258,2026-05-11 16:07:06.698503,-0.09171267,1.0212182,0.33934906,6.037639,-1.6404786,-0.19074267
259,2026-05-11 16:07:06.701540,-0.09171267,1.0212182,0.33934906,6.037639,-1.6404786,-0.19074267
260,2026-05-11 16:07:06.704223,-0.09171267,1.0212182,0.33934906,6.037639,-1.6404786,-0.19074267
261,2026-05-11 16:07:06.706858,-0.09171267,1.0212182,0.33934906,6.037639,-1.6404786,-0.19074267
262,2026-05-11 16:07:06.709623,-0.09171267,1.0212182,0.33934906,6.037639,-1.6404786,-0.19074267
263,2026-05-11 16:07:06.712243,-0.09171267,1.0212182,0.33934906,6.037639,-1.6404786,-0.19074267
264,2026-05-11 16:07:06.714818,-0.09171267,1.0212182,0.33934906,6.037639,-1.6404786,-0.19074267
265,2026-05-11 16:07:06.717723,-0.09171267,1.0212182,0.33934906,6.037639,-1.6404786,-0.19074267
266,2026-05-11 16:07:06.720505,-0.12769037,0.9512141,0.079516836,6.037639,-1.6404786,-0.19074267
267,2026-05-11 16:07:06.723119,-0.12769037,0.9512141,0.079516836,6.037639,-1.6404786,-0.19074267
268,2026-05-11 16:07:06.725681,-0.12769037,0.9512141,0.079516836,6.037639,-1.6404786,-0.19074267
269,2026-05-11 16:07:06.728531,-0.12769037,0.9512141,0.079516836,6.037639,-1.6404786,-0.19074267
270,2026-05-11 16:07:06.731207,-0.12769037,0.9512141,0.079516836,6.037639,-1.6404786,-0.19074267
271,2026-05-11 16:07:06.734223,-0.16915621,0.9359693,-0.12903193,5.700136,-1.3903292,-0.3462079
272,2026-05-11 16:07:06.737154,-0.16915621,0.9359693,-0.12903193,5.700136,-1.3903292,-0.3462079
273,2026-05-11 16:07:06.739737,-0.16915621,0.9359693,-0.12903193,5.700136,-1.3903292,-0.3462079
274,2026-05-11 16:07:06.742310,-0.16915621,0.9359693,-0.12903193,5.700136,-1.3903292,-0.3462079
275,2026-05-11 16:07:06.744856,-0.16915621,0.9359693,-0.12903193,5.700136,-1.3903292,-0.3462079
276,2026-05-11 16:07:06.747621,-0.16915621,0.9359693,-0.12903193,5.700136,-1.3903292,-0.3462079
277,2026-05-11 16:07:06.750469,-0.16915621,0.9359693,-0.12903193,5.700136,-1.3903292,-0.3462079
278,2026-05-11 16:07:06.753635,-0.16915621,0.9359693,-0.12903193,5.700136,-1.3903292,-0.3462079
279,2026-05-11 16:07:06.756297,-0.16915621,0.9359693,-0.12903193,5.700136,-1.3903292,-0.3462079
280,2026-05-11 16:07:06.758859,-0.16915621,0.9359693,-0.12903193,5.700136,-1.3903292,-0.3462079
281,2026-05-11 16:07:06.761404,-0.16915621,0.9359693,-0.12903193,5.700136,-1.3903292,-0.3462079
282,2026-05-11 16:07:06.764171,-0.16915621,0.9359693,-0.12903193,5.700136,-1.3903292,-0.3462079
283,2026-05-11 16:07:06.767108,-0.16915621,0.9359693,-0.12903193,5.2645893,-1.2299771,-0.3633121
284,2026-05-11 16:07:06.770269,-0.16915621,0.9359693,-0.12903193,5.2645893,-1.2299771,-0.3633121
285,2026-05-11 16:07:06.772904,-0.16915621,0.9359693,-0.12903193,5.2645893,-1.2299771,-0.3633121
286,2026-05-11 16:07:06.775433,-0.16915621,0.9359693,-0.12903193,5.2645893,-1.2299771,-0.3633121
287,2026-05-11 16:07:06.778262,-0.16915621,0.9359693,-0.12903193,5.2645893,-1.2299771,-0.3633121
288,2026-05-11 16:07:06.780870,-0.16915621,0.9359693,-0.12903193,5.2645893,-1.2299771,-0.3633121
289,2026-05-11 16:07:06.783551,-0.16915621,0.9359693,-0.12903193,5.2645893,-1.2299771,-0.3633121
290,2026-05-11 16:07:06.786767,-0.16915621,0.9359693,-0.12903193,5.2645893,-1.2299771,-0.3633121
291,2026-05-11 16:07:06.789332,-0.16915621,0.9359693,-0.12903193,5.2645893,-1.2299771,-0.3633121
292,2026-05-11 16:07:06.792011,-0.16915621,0.9359693,-0.12903193,5.2645893,-1.2299771,-0.3633121
293,2026-05-11 16:07:06.794865,-0.16915621,0.9359693,-0.12903193,5.2645893,-1.2299771,-0.3633121
294,2026-05-11 16:07:06.797553,-0.16915621,0.9359693,-0.12903193,4.4060183,-1.1757629,-0.20219639
295,2026-05-11 16:07:06.800613,-0.16915621,0.9359693,-0.12903193,4.4060183,-1.1757629,-0.20219639
296,2026-05-11 16:07:06.803396,-0.24824621,0.8982231,-0.34026375,4.4060183,-1.1757629,-0.20219639
297,2026-05-11 16:07:06.806100,-0.24824621,0.8982231,-0.34026375,4.4060183,-1.1757629,-0.20219639
298,2026-05-11 16:07:06.808666,-0.24824621,0.8982231,-0.34026375,4.4060183,-1.1757629,-0.20219639
299,2026-05-11 16:07:06.811379,-0.24824621,0.8982231,-0.34026375,4.4060183,-1.1757629,-0.20219639
300,2026-05-11 16:07:06.813963,-0.24824621,0.8982231,-0.34026375,4.4060183,-1.1757629,-0.20219639
301,2026-05-11 16:07:06.816778,-0.24824621,0.8982231,-0.34026375,4.4060183,-1.1757629,-0.20219639
302,2026-05-11 16:07:06.820149,-0.24824621,0.8982231,-0.34026375,4.4060183,-1.1757629,-0.20219639
303,2026-05-11 16:07:06.823094,-0.24824621,0.8982231,-0.34026375,4.4060183,-1.1757629,-0.20219639
304,2026-05-11 16:07:06.825899,-0.24824621,0.8982231,-0.34026375,4.4060183,-1.1757629,-0.20219639
305,2026-05-11 16:07:06.828719,-0.24824621,0.8982231,-0.34026375,4.4060183,-1.1757629,-0.20219639
306,2026-05-11 16:07:06.831314,-0.24824621,0.8982231,-0.34026375,4.4060183,-1.1757629,-0.20219639
307,2026-05-11 16:07:06.834127,-0.24824621,0.8982231,-0.34026375,4.4060183,-1.1757629,-0.20219639
308,2026-05-11 16:07:06.837357,-0.24824621,0.8982231,-0.34026375,4.4060183,-1.1757629,-0.20219639
309,2026-05-11 16:07:06.840111,-0.24824621,0.8982231,-0.34026375,4.4060183,-1.1757629,-0.20219639
310,2026-05-11 16:07:06.842694,-0.24824621,0.8982231,-0.34026375,4.4060183,-1.1757629,-0.20219639
311,2026-05-11 16:07:06.845595,-0.24824621,0.8982231,-0.34026375,4.4060183,-1.1757629,-0.20219639
312,2026-05-11 16:07:06.848248,-0.24824621,0.8982231,-0.34026375,4.4060183,-1.1757629,-0.20219639
313,2026-05-11 16:07:06.851355,-0.24824621,0.8982231,-0.34026375,4.4060183,-1.1757629,-0.20219639
314,2026-05-11 16:07:06.854280,-0.24824621,0.8982231,-0.34026375,4.4060183,-1.1757629,-0.20219639
315,2026-05-11 16:07:06.856884,-0.24824621,0.8982231,-0.34026375,4.4060183,-1.1757629,-0.20219639
316,2026-05-11 16:07:06.859427,-0.24824621,0.8982231,-0.34026375,4.4060183,-1.1757629,-0.20219639
317,2026-05-11 16:07:06.862002,-0.24824621,0.8982231,-0.34026375,4.4060183,-1.1757629,-0.20219639
318,2026-05-11 16:07:06.864523,-0.24824621,0.8982231,-0.34026375,4.4060183,-1.1757629,-0.20219639
319,2026-05-11 16:07:06.867508,-0.24824621,0.8982231,-0.34026375,4.4060183,-1.1757629,-0.20219639
320,2026-05-11 16:07:06.870220,-0.24824621,0.8982231,-0.34026375,4.4060183,-1.1757629,-0.20219639
321,2026-05-11 16:07:06.872768,-0.24824621,0.8982231,-0.34026375,4.4060183,-1.1757629,-0.20219639
322,2026-05-11 16:07:06.875460,-0.24824621,0.8982231,-0.34026375,4.4060183,-1.1757629,-0.20219639
323,2026-05-11 16:07:06.878138,-0.24824621,0.8982231,-0.34026375,4.4060183,-1.1757629,-0.20219639
324,2026-05-11 16:07:06.880697,-0.24824621,0.8982231,-0.34026375,4.4060183,-1.1757629,-0.20219639
325,2026-05-11 16:07:06.883834,-0.24824621,0.8982231,-0.34026375,4.4060183,-1.1757629,-0.20219639
326,2026-05-11 16:07:06.886652,-0.24824621,0.8982231,-0.34026375,4.4060183,-1.1757629,-0.20219639
327,2026-05-11 16:07:06.889284,-0.24824621,0.8982231,-0.34026375,4.4060183,-1.1757629,-0.20219639
328,2026-05-11 16:07:06.891866,-0.24824621,0.8982231,-0.34026375,4.4060183,-1.1757629,-0.20219639
329,2026-05-11 16:07:06.894569,-0.24824621,0.8982231,-0.34026375,4.4060183,-1.1757629,-0.20219639
330,2026-05-11 16:07:06.897093,-0.24824621,0.8982231,-0.34026375,4.4060183,-1.1757629,-0.20219639
331,2026-05-11 16:07:06.899981,-0.24824621,0.8982231,-0.34026375,4.4060183,-1.1757629,-0.20219639
332,2026-05-11 16:07:06.903241,-0.24824621,0.8982231,-0.34026375,4.4060183,-1.1757629,-0.20219639
333,2026-05-11 16:07:06.906025,-0.24824621,0.8982231,-0.34026375,4.4060183,-1.1757629,-0.20219639
334,2026-05-11 16:07:06.908728,-0.24824621,0.8982231,-0.34026375,4.4060183,-1.1757629,-0.20219639
335,2026-05-11 16:07:06.911312,-0.24824621,0.8982231,-0.34026375,4.4060183,-1.1757629,-0.20219639
336,2026-05-11 16:07:06.914042,-0.24824621,0.8982231,-0.34026375,4.4060183,-1.1757629,-0.20219639
337,2026-05-11 16:07:06.916672,-0.24824621,0.8982231,-0.34026375,4.4060183,-1.1757629,-0.20219639
338,2026-05-11 16:07:06.919802,-0.24824621,0.8982231,-0.34026375,4.4060183,-1.1757629,-0.20219639
339,2026-05-11 16:07:06.922473,-0.24824621,0.8982231,-0.34026375,4.4060183,-1.1757629,-0.20219639
340,2026-05-11 16:07:06.925008,-0.24824621,0.8982231,-0.34026375,4.4060183,-1.1757629,-0.20219639
341,2026-05-11 16:07:06.927547,-0.24824621,0.8982231,-0.34026375,4.4060183,-1.1757629,-0.20219639
342,2026-05-11 16:07:06.930231,-0.24824621,0.8982231,-0.34026375,4.4060183,-1.1757629,-0.20219639
343,2026-05-11 16:07:06.932799,-0.24824621,0.8982231,-0.34026375,4.4060183,-1.1757629,-0.20219639
344,2026-05-11 16:07:06.936007,-0.24824621,0.8982231,-0.34026375,4.4060183,-1.1757629,-0.20219639
345,2026-05-11 16:07:06.938640,-0.24824621,0.8982231,-0.34026375,4.4060183,-1.1757629,-0.20219639
346,2026-05-11 16:07:06.941288,-0.25105122,0.94566494,-0.4024625,4.4060183,-1.1757629,-0.20219639
347,2026-05-11 16:07:06.944057,-0.25105122,0.94566494,-0.4024625,4.4060183,-1.1757629,-0.20219639
348,2026-05-11 16:07:06.946725,-0.25105122,0.94566494,-0.4024625,4.4060183,-1.1757629,-0.20219639
349,2026-05-11 16:07:06.949459,-0.25105122,0.94566494,-0.4024625,4.4060183,-1.1757629,-0.20219639
350,2026-05-11 16:07:06.953320,-0.25105122,0.94566494,-0.4024625,4.4060183,-1.1757629,-0.20219639
351,2026-05-11 16:07:06.956737,-0.25105122,0.94566494,-0.4024625,4.4060183,-1.1757629,-0.20219639
352,2026-05-11 16:07:06.959631,-0.25105122,0.94566494,-0.4024625,4.4060183,-1.1757629,-0.20219639
353,2026-05-11 16:07:06.962381,-0.25105122,0.94566494,-0.4024625,4.4060183,-1.1757629,-0.20219639
354,2026-05-11 16:07:06.965091,-0.25105122,0.94566494,-0.4024625,4.4060183,-1.1757629,-0.20219639
355,2026-05-11 16:07:06.968798,-0.25105122,0.94566494,-0.4024625,3.755294,-1.3072516,0.018936822
356,2026-05-11 16:07:06.971732,-0.25105122,0.94566494,-0.4024625,3.755294,-1.3072516,0.018936822
357,2026-05-11 16:07:06.974909,-0.25105122,0.94566494,-0.4024625,3.755294,-1.3072516,0.018936822
358,2026-05-11 16:07:06.977861,-0.25105122,0.94566494,-0.4024625,3.755294,-1.3072516,0.018936822
359,2026-05-11 16:07:06.980787,-0.25105122,0.94566494,-0.4024625,3.755294,-1.3072516,0.018936822
360,2026-05-11 16:07:06.984285,-0.25105122,0.94566494,-0.4024625,3.755294,-1.3072516,0.018936822
361,2026-05-11 16:07:06.987401,-0.25105122,0.94566494,-0.4024625,3.755294,-1.3072516,0.018936822
362,2026-05-11 16:07:06.990075,-0.25105122,0.94566494,-0.4024625,3.755294,-1.3072516,0.018936822
363,2026-05-11 16:07:06.992651,-0.25105122,0.94566494,-0.4024625,3.755294,-1.3072516,0.018936822
364,2026-05-11 16:07:06.995253,-0.25105122,0.94566494,-0.4024625,3.755294,-1.3072516,0.018936822
365,2026-05-11 16:07:06.997806,-0.25105122,0.94566494,-0.4024625,3.755294,-1.3072516,0.018936822
366,2026-05-11 16:07:07.000781,-0.25105122,0.94566494,-0.4024625,3.755294,-1.3072516,0.018936822
367,2026-05-11 16:07:07.003543,-0.25105122,0.94566494,-0.4024625,3.755294,-1.3072516,0.018936822
368,2026-05-11 16:07:07.006116,-0.25105122,0.94566494,-0.4024625,3.755294,-1.3072516,0.018936822
369,2026-05-11 16:07:07.008701,-0.25105122,0.94566494,-0.4024625,3.755294,-1.3072516,0.018936822
370,2026-05-11 16:07:07.011501,-0.25105122,0.94566494,-0.4024625,3.755294,-1.3072516,0.018936822
371,2026-05-11 16:07:07.014085,-0.25105122,0.94566494,-0.4024625,3.755294,-1.3072516,0.018936822
372,2026-05-11 16:07:07.016781,-0.25105122,0.94566494,-0.4024625,3.755294,-1.3072516,0.018936822
373,2026-05-11 16:07:07.020201,-0.25105122,0.94566494,-0.4024625,3.755294,-1.3072516,0.018936822
374,2026-05-11 16:07:07.023174,-0.25105122,0.94566494,-0.4024625,3.755294,-1.3072516,0.018936822
375,2026-05-11 16:07:07.025779,-0.25105122,0.94566494,-0.4024625,3.755294,-1.3072516,0.018936822
376,2026-05-11 16:07:07.028720,-0.25105122,0.94566494,-0.4024625,3.755294,-1.3072516,0.018936822
377,2026-05-11 16:07:07.031313,-0.25105122,0.94566494,-0.4024625,3.755294,-1.3072516,0.018936822
378,2026-05-11 16:07:07.034247,-0.25105122,0.94566494,-0.4024625,3.755294,-1.3072516,0.018936822
379,2026-05-11 16:07:07.037437,-0.25105122,0.94566494,-0.4024625,3.755294,-1.3072516,0.018936822
380,2026-05-11 16:07:07.040274,-0.20739016,0.99011874,-0.28922418,3.755294,-1.3072516,0.018936822
381,2026-05-11 16:07:07.042899,-0.20739016,0.99011874,-0.28922418,3.755294,-1.3072516,0.018936822
382,2026-05-11 16:07:07.045452,-0.20739016,0.99011874,-0.28922418,3.755294,-1.3072516,0.018936822
383,2026-05-11 16:07:07.048179,-0.20739016,0.99011874,-0.28922418,3.755294,-1.3072516,0.018936822
384,2026-05-11 16:07:07.051139,-0.20739016,0.99011874,-0.28922418,3.755294,-1.3072516,0.018936822
385,2026-05-11 16:07:07.053881,-0.20739016,0.99011874,-0.28922418,3.755294,-1.3072516,0.018936822
386,2026-05-11 16:07:07.056509,-0.20739016,0.99011874,-0.28922418,3.755294,-1.3072516,0.018936822
387,2026-05-11 16:07:07.059056,-0.20739016,0.99011874,-0.28922418,3.755294,-1.3072516,0.018936822
388,2026-05-11 16:07:07.061653,-0.20739016,0.99011874,-0.28922418,3.755294,-1.3072516,0.018936822
389,2026-05-11 16:07:07.064135,-0.20739016,0.99011874,-0.28922418,3.755294,-1.3072516,0.018936822
390,2026-05-11 16:07:07.066656,-0.20739016,0.99011874,-0.28922418,3.755294,-1.3072516,0.018936822
391,2026-05-11 16:07:07.069904,-0.20739016,0.99011874,-0.28922418,3.755294,-1.3072516,0.018936822
392,2026-05-11 16:07:07.072491,-0.20739016,0.99011874,-0.28922418,3.755294,-1.3072516,0.018936822
393,2026-05-11 16:07:07.075206,0.025672229,0.97639847,0.01396423,2.3310618,-1.4485142,0.6275113
394,2026-05-11 16:07:07.077803,0.025672229,0.97639847,0.01396423,2.3310618,-1.4485142,0.6275113
395,2026-05-11 16:07:07.080317,0.025672229,0.97639847,0.01396423,2.3310618,-1.4485142,0.6275113
396,2026-05-11 16:07:07.083145,0.025672229,0.97639847,0.01396423,2.3310618,-1.4485142,0.6275113
397,2026-05-11 16:07:07.086208,0.025672229,0.97639847,0.01396423,2.3310618,-1.4485142,0.6275113
398,2026-05-11 16:07:07.088942,0.025672229,0.97639847,0.01396423,2.3310618,-1.4485142,0.6275113
399,2026-05-11 16:07:07.117452,1.2513535,0.166839,-0.19604802,3.060893,-4.380362,2.724459
400,2026-05-11 16:07:07.124468,1.4680125,0.11073817,-0.18366925,-2.0670152,1.1537718,-1.4443909
401,2026-05-11 16:07:07.129655,1.4680125,0.11073817,-0.18366925,-2.0670152,1.1537718,-1.4443909
402,2026-05-11 16:07:07.132751,1.4680125,0.11073817,-0.18366925,-2.0670152,1.1537718,-1.4443909
403,2026-05-11 16:07:07.135775,1.4680125,0.11073817,-0.18366925,-2.0670152,1.1537718,-1.4443909
404,2026-05-11 16:07:07.138589,1.5052098,0.021647604,-0.20909756,-1.1032226,0.2564107,-1.9779817
405,2026-05-11 16:07:07.141233,1.5052098,0.021647604,-0.20909756,-1.1032226,0.2564107,-1.9779817
406,2026-05-11 16:07:07.143817,1.5052098,0.021647604,-0.20909756,-1.1032226,0.2564107,-1.9779817
407,2026-05-11 16:07:07.146581,1.5052098,0.021647604,-0.20909756,-1.1032226,0.2564107,-1.9779817
408,2026-05-11 16:07:07.149189,1.5052098,0.021647604,-0.20909756,-1.1032226,0.2564107,-1.9779817
409,2026-05-11 16:07:07.152492,1.5052098,0.021647604,-0.20909756,-1.1032226,0.2564107,-1.9779817
410,2026-05-11 16:07:07.155320,1.5052098,0.021647604,-0.20909756,-0.67088276,0.04046982,-2.2692118
411,2026-05-11 16:07:07.158086,1.5052098,0.021647604,-0.20909756,-0.67088276,0.04046982,-2.2692118
412,2026-05-11 16:07:07.160690,1.5052098,0.021647604,-0.20909756,-0.67088276,0.04046982,-2.2692118
413,2026-05-11 16:07:07.163506,1.5052098,0.021647604,-0.20909756,-0.67088276,0.04046982,-2.2692118
414,2026-05-11 16:07:07.166181,1.5052098,0.021647604,-0.20909756,-0.67088276,0.04046982,-2.2692118
415,2026-05-11 16:07:07.169284,1.5052098,0.021647604,-0.20909756,-0.67088276,0.04046982,-2.2692118
416,2026-05-11 16:07:07.171938,1.5052098,0.021647604,-0.20909756,-0.67088276,0.04046982,-2.2692118
417,2026-05-11 16:07:07.174679,1.5052098,0.021647604,-0.20909756,-0.67088276,0.04046982,-2.2692118
418,2026-05-11 16:07:07.177250,1.5052098,0.021647604,-0.20909756,-0.67088276,0.04046982,-2.2692118
419,2026-05-11 16:07:07.179819,1.5052098,0.021647604,-0.20909756,-0.67088276,0.04046982,-2.2692118
420,2026-05-11 16:07:07.182360,1.5052098,0.021647604,-0.20909756,-0.67088276,0.04046982,-2.2692118
421,2026-05-11 16:07:07.185280,1.5052098,0.021647604,-0.20909756,-0.67088276,0.04046982,-2.2692118
422,2026-05-11 16:07:07.187994,1.5052098,0.021647604,-0.20909756,-0.67088276,0.04046982,-2.2692118
423,2026-05-11 16:07:07.190664,1.5052098,0.021647604,-0.20909756,-0.67088276,0.04046982,-2.2692118
424,2026-05-11 16:07:07.193253,1.5052098,0.021647604,-0.20909756,-0.67088276,0.04046982,-2.2692118
425,2026-05-11 16:07:07.195819,1.5052098,0.021647604,-0.20909756,-0.67088276,0.04046982,-2.2692118
426,2026-05-11 16:07:07.198502,1.5052098,0.021647604,-0.20909756,-0.67088276,0.04046982,-2.2692118
427,2026-05-11 16:07:07.201647,1.5521637,-0.05945469,-0.25489292,-0.67088276,0.04046982,-2.2692118
428,2026-05-11 16:07:07.204503,1.5521637,-0.05945469,-0.25489292,-0.67088276,0.04046982,-2.2692118
429,2026-05-11 16:07:07.207156,1.5521637,-0.05945469,-0.25489292,-0.67088276,0.04046982,-2.2692118
430,2026-05-11 16:07:07.209794,1.5521637,-0.05945469,-0.25489292,-0.67088276,0.04046982,-2.2692118
431,2026-05-11 16:07:07.212359,1.5521637,-0.05945469,-0.25489292,-0.67088276,0.04046982,-2.2692118
432,2026-05-11 16:07:07.214919,1.5521637,-0.05945469,-0.25489292,-0.67088276,0.04046982,-2.2692118
433,2026-05-11 16:07:07.218022,1.5521637,-0.05945469,-0.25489292,-0.67088276,0.04046982,-2.2692118
434,2026-05-11 16:07:07.220893,1.5521637,-0.05945469,-0.25489292,-0.67088276,0.04046982,-2.2692118
435,2026-05-11 16:07:07.223604,1.5521637,-0.05945469,-0.25489292,-0.67088276,0.04046982,-2.2692118
436,2026-05-11 16:07:07.226236,1.5521637,-0.05945469,-0.25489292,-0.67088276,0.04046982,-2.2692118
437,2026-05-11 16:07:07.228873,1.5521637,-0.05945469,-0.25489292,-0.67088276,0.04046982,-2.2692118
438,2026-05-11 16:07:07.231440,1.5521637,-0.05945469,-0.25489292,-0.67088276,0.04046982,-2.2692118
439,2026-05-11 16:07:07.234586,1.5521637,-0.05945469,-0.25489292,-0.67088276,0.04046982,-2.2692118
440,2026-05-11 16:07:07.237290,1.5521637,-0.05945469,-0.25489292,-0.67088276,0.04046982,-2.2692118
441,2026-05-11 16:07:07.239863,1.5521637,-0.05945469,-0.25489292,-0.67088276,0.04046982,-2.2692118
442,2026-05-11 16:07:07.242459,1.5521637,-0.05945469,-0.25489292,-0.67088276,0.04046982,-2.2692118
443,2026-05-11 16:07:07.245072,1.5521637,-0.05945469,-0.25489292,-0.67088276,0.04046982,-2.2692118
444,2026-05-11 16:07:07.247854,1.5521637,-0.05945469,-0.25489292,-0.67088276,0.04046982,-2.2692118
445,2026-05-11 16:07:07.250675,1.5521637,-0.05945469,-0.25489292,-0.67088276,0.04046982,-2.2692118
446,2026-05-11 16:07:07.253631,1.5521637,-0.05945469,-0.25489292,-0.67088276,0.04046982,-2.2692118
447,2026-05-11 16:07:07.256239,1.5521637,-0.05945469,-0.25489292,-0.67088276,0.04046982,-2.2692118
448,2026-05-11 16:07:07.258820,1.5521637,-0.05945469,-0.25489292,-0.67088276,0.04046982,-2.2692118
449,2026-05-11 16:07:07.261588,1.5521637,-0.05945469,-0.25489292,-0.67088276,0.04046982,-2.2692118
450,2026-05-11 16:07:07.264260,1.5521637,-0.05945469,-0.25489292,-0.67088276,0.04046982,-2.2692118
451,2026-05-11 16:07:07.267362,1.5521637,-0.05945469,-0.25489292,-0.67088276,0.04046982,-2.2692118
452,2026-05-11 16:07:07.270216,1.5521637,-0.05945469,-0.25489292,-0.67088276,0.04046982,-2.2692118
453,2026-05-11 16:07:07.272839,1.5521637,-0.05945469,-0.25489292,-0.67088276,0.04046982,-2.2692118
454,2026-05-11 16:07:07.275403,1.5521637,-0.05945469,-0.25489292,-0.67088276,0.04046982,-2.2692118
455,2026-05-11 16:07:07.278081,1.5521637,-0.05945469,-0.25489292,-0.67088276,0.04046982,-2.2692118
456,2026-05-11 16:07:07.280620,1.5521637,-0.05945469,-0.25489292,-0.67088276,0.04046982,-2.2692118
457,2026-05-11 16:07:07.283178,1.5521637,-0.05945469,-0.25489292,-0.67088276,0.04046982,-2.2692118
458,2026-05-11 16:07:07.286370,1.5521637,-0.05945469,-0.25489292,-0.67088276,0.04046982,-2.2692118
459,2026-05-11 16:07:07.289020,1.5521637,-0.05945469,-0.25489292,-0.67088276,0.04046982,-2.2692118
460,2026-05-11 16:07:07.291805,1.5521637,-0.05945469,-0.25489292,-0.67088276,0.04046982,-2.2692118
461,2026-05-11 16:07:07.294413,1.5521637,-0.05945469,-0.25489292,-0.67088276,0.04046982,-2.2692118
462,2026-05-11 16:07:07.297217,1.5521637,-0.05945469,-0.25489292,-0.67088276,0.04046982,-2.2692118
463,2026-05-11 16:07:07.299811,1.5521637,-0.05945469,-0.25489292,-0.67088276,0.04046982,-2.2692118
464,2026-05-11 16:07:07.302779,1.5521637,-0.05945469,-0.25489292,-0.67088276,0.04046982,-2.2692118
465,2026-05-11 16:07:07.305389,1.5521637,-0.05945469,-0.25489292,-0.67088276,0.04046982,-2.2692118
466,2026-05-11 16:07:07.307922,1.5521637,-0.05945469,-0.25489292,-0.67088276,0.04046982,-2.2692118
467,2026-05-11 16:07:07.310468,1.5521637,-0.05945469,-0.25489292,-0.67088276,0.04046982,-2.2692118
468,2026-05-11 16:07:07.313235,1.5521637,-0.05945469,-0.25489292,-0.67088276,0.04046982,-2.2692118
469,2026-05-11 16:07:07.315836,1.5521637,-0.05945469,-0.25489292,-0.67088276,0.04046982,-2.2692118
470,2026-05-11 16:07:07.319058,1.5521637,-0.05945469,-0.25489292,-0.67088276,0.04046982,-2.2692118
471,2026-05-11 16:07:07.321764,1.5521637,-0.05945469,-0.25489292,-0.67088276,0.04046982,-2.2692118
472,2026-05-11 16:07:07.324313,1.5521637,-0.05945469,-0.25489292,-0.67088276,0.04046982,-2.2692118
473,2026-05-11 16:07:07.326921,1.5521637,-0.05945469,-0.25489292,-0.67088276,0.04046982,-2.2692118
474,2026-05-11 16:07:07.329603,1.5521637,-0.05945469,-0.25489292,-0.67088276,0.04046982,-2.2692118
475,2026-05-11 16:07:07.332140,1.5521637,-0.05945469,-0.25489292,-0.67088276,0.04046982,-2.2692118
476,2026-05-11 16:07:07.335348,1.5521637,-0.05945469,-0.25489292,-0.67088276,0.04046982,-2.2692118
477,2026-05-11 16:07:07.338057,1.5521637,-0.05945469,-0.25489292,-0.67088276,0.04046982,-2.2692118
478,2026-05-11 16:07:07.340944,1.5521637,-0.05945469,-0.25489292,-0.67088276,0.04046982,-2.2692118
479,2026-05-11 16:07:07.343639,1.5821655,-0.11488476,-0.33477563,-0.39767328,0.0888809,-2.5685356
480,2026-05-11 16:07:07.346276,1.5821655,-0.11488476,-0.33477563,-0.39767328,0.0888809,-2.5685356
481,2026-05-11 16:07:07.348980,1.5821655,-0.11488476,-0.33477563,-0.39767328,0.0888809,-2.5685356
482,2026-05-11 16:07:07.352132,1.5821655,-0.11488476,-0.33477563,-0.39767328,0.0888809,-2.5685356
483,2026-05-11 16:07:07.355055,1.5821655,-0.11488476,-0.33477563,-0.39767328,0.0888809,-2.5685356
484,2026-05-11 16:07:07.357815,1.5821655,-0.11488476,-0.33477563,-0.39767328,0.0888809,-2.5685356
485,2026-05-11 16:07:07.360455,1.5821655,-0.11488476,-0.33477563,-0.39767328,0.0888809,-2.5685356
486,2026-05-11 16:07:07.363190,1.5821655,-0.11488476,-0.33477563,-0.39767328,0.0888809,-2.5685356
487,2026-05-11 16:07:07.365775,1.5821655,-0.11488476,-0.33477563,-0.39767328,0.0888809,-2.5685356
488,2026-05-11 16:07:07.368853,1.5821655,-0.11488476,-0.33477563,-0.39767328,0.0888809,-2.5685356
489,2026-05-11 16:07:07.371715,1.5821655,-0.11488476,-0.33477563,-0.39767328,0.0888809,-2.5685356
490,2026-05-11 16:07:07.374318,1.5821655,-0.11488476,-0.33477563,-0.39767328,0.0888809,-2.5685356
491,2026-05-11 16:07:07.377428,1.5821655,-0.11488476,-0.33477563,-0.39767328,0.0888809,-2.5685356
492,2026-05-11 16:07:07.380679,1.5821655,-0.11488476,-0.33477563,-0.39767328,0.0888809,-2.5685356
493,2026-05-11 16:07:07.385627,1.5821655,-0.11488476,-0.33477563,-0.22510384,0.35430184,-2.9338331
494,2026-05-11 16:07:07.388714,1.5821655,-0.11488476,-0.33477563,-0.22510384,0.35430184,-2.9338331
495,2026-05-11 16:07:07.392925,1.5493587,-0.18988912,-0.47142997,-0.22510384,0.35430184,-2.9338331
496,2026-05-11 16:07:07.396672,1.5493587,-0.18988912,-0.47142997,-0.22510384,0.35430184,-2.9338331
497,2026-05-11 16:07:07.401265,1.5493587,-0.18988912,-0.47142997,-0.22510384,0.35430184,-2.9338331
498,2026-05-11 16:07:07.406243,1.436974,-0.22531801,-0.62332904,-0.3036,0.8938486,-3.3643403
499,2026-05-11 16:07:07.412333,1.1461035,-0.21300024,-0.83041435,-0.3036,0.8938486,-3.3643403
500,2026-05-11 16:07:07.415727,1.1461035,-0.21300024,-0.83041435,-0.3036,0.8938486,-3.3643403
501,2026-05-11 16:07:07.422403,1.1461035,-0.21300024,-0.83041435,-0.3036,0.8938486,-3.3643403
502,2026-05-11 16:07:07.425788,1.1461035,-0.21300024,-0.83041435,-0.3036,0.8938486,-3.3643403
503,2026-05-11 16:07:07.429360,1.1461035,-0.21300024,-0.83041435,-0.3036,0.8938486,-3.3643403
504,2026-05-11 16:07:07.435762,0.98091084,-0.20995127,-0.9196878,-0.3036,0.8938486,-3.3643403
505,2026-05-11 16:07:07.439786,0.98091084,-0.20995127,-0.9196878,-0.3036,0.8938486,-3.3643403
506,2026-05-11 16:07:07.444071,0.98091084,-0.20995127,-0.9196878,-0.3036,0.8938486,-3.3643403
507,2026-05-11 16:07:07.447284,0.98091084,-0.20995127,-0.9196878,-0.3036,0.8938486,-3.3643403
508,2026-05-11 16:07:07.451913,0.98091084,-0.20995127,-0.9196878,-0.3036,0.8938486,-3.3643403
509,2026-05-11 16:07:07.459172,0.98091084,-0.20995127,-0.9196878,-0.3036,0.8938486,-3.3643403
510,2026-05-11 16:07:07.462834,0.7778503,-0.19958481,-0.90194285,-0.44715336,0.93554014,-3.2904255
511,2026-05-11 16:07:07.467777,0.7778503,-0.19958481,-0.90194285,-0.44715336,0.93554014,-3.2904255
512,2026-05-11 16:07:07.471295,0.7778503,-0.19958481,-0.90194285,-0.44715336,0.93554014,-3.2904255
513,2026-05-11 16:07:07.474304,0.7778503,-0.19958481,-0.90194285,-0.44715336,0.93554014,-3.2904255
514,2026-05-11 16:07:07.477038,0.7778503,-0.19958481,-0.90194285,-0.44715336,0.93554014,-3.2904255
515,2026-05-11 16:07:07.479664,0.7778503,-0.19958481,-0.90194285,-0.44715336,0.93554014,-3.2904255
516,2026-05-11 16:07:07.482424,0.7778503,-0.19958481,-0.90194285,-0.44715336,0.93554014,-3.2904255
517,2026-05-11 16:07:07.485489,0.7778503,-0.19958481,-0.90194285,-0.44715336,0.93554014,-3.2904255
518,2026-05-11 16:07:07.488233,0.7778503,-0.19958481,-0.90194285,-0.44715336,0.93554014,-3.2904255
519,2026-05-11 16:07:07.490807,0.7778503,-0.19958481,-0.90194285,-0.44715336,0.93554014,-3.2904255
520,2026-05-11 16:07:07.493638,0.7778503,-0.19958481,-0.90194285,-0.69989884,0.89965177,-2.9811752
521,2026-05-11 16:07:07.496385,0.7778503,-0.19958481,-0.90194285,-0.69989884,0.89965177,-2.9811752
522,2026-05-11 16:07:07.499056,0.7778503,-0.19958481,-0.90194285,-0.69989884,0.89965177,-2.9811752
523,2026-05-11 16:07:07.502074,0.7778503,-0.19958481,-0.90194285,-0.69989884,0.89965177,-2.9811752
524,2026-05-11 16:07:07.504729,0.7778503,-0.19958481,-0.90194285,-0.69989884,0.89965177,-2.9811752
525,2026-05-11 16:07:07.507306,0.7778503,-0.19958481,-0.90194285,-0.69989884,0.89965177,-2.9811752
526,2026-05-11 16:07:07.510089,0.7778503,-0.19958481,-0.90194285,-0.69989884,0.89965177,-2.9811752
527,2026-05-11 16:07:07.512680,0.7778503,-0.19958481,-0.90194285,-0.69989884,0.89965177,-2.9811752
528,2026-05-11 16:07:07.515258,0.7778503,-0.19958481,-0.90194285,-0.69989884,0.89965177,-2.9811752
529,2026-05-11 16:07:07.518613,0.7778503,-0.19958481,-0.90194285,-0.69989884,0.89965177,-2.9811752
530,2026-05-11 16:07:07.521367,0.7778503,-0.19958481,-0.90194285,-0.69989884,0.89965177,-2.9811752
531,2026-05-11 16:07:07.524289,0.7778503,-0.19958481,-0.90194285,-0.69989884,0.89965177,-2.9811752
532,2026-05-11 16:07:07.527065,0.7778503,-0.19958481,-0.90194285,-0.69989884,0.89965177,-2.9811752
533,2026-05-11 16:07:07.529817,0.7778503,-0.19958481,-0.90194285,-0.7263188,0.6649268,-2.6073256
534,2026-05-11 16:07:07.532484,0.7778503,-0.19958481,-0.90194285,-0.7263188,0.6649268,-2.6073256
535,2026-05-11 16:07:07.535571,0.7778503,-0.19958481,-0.90194285,-0.7263188,0.6649268,-2.6073256
536,2026-05-11 16:07:07.538394,0.7778503,-0.19958481,-0.90194285,-0.7263188,0.6649268,-2.6073256
537,2026-05-11 16:07:07.540999,0.7778503,-0.19958481,-0.90194285,-0.7263188,0.6649268,-2.6073256
538,2026-05-11 16:07:07.543760,0.7778503,-0.19958481,-0.90194285,-0.7263188,0.6649268,-2.6073256
539,2026-05-11 16:07:07.546341,0.7778503,-0.19958481,-0.90194285,-0.7263188,0.6649268,-2.6073256
540,2026-05-11 16:07:07.548986,0.7778503,-0.19958481,-0.90194285,-0.7263188,0.6649268,-2.6073256
541,2026-05-11 16:07:07.551888,0.7778503,-0.19958481,-0.90194285,-0.7263188,0.6649268,-2.6073256
542,2026-05-11 16:07:07.554592,0.7778503,-0.19958481,-0.90194285,-0.7263188,0.6649268,-2.6073256
543,2026-05-11 16:07:07.557420,0.7778503,-0.19958481,-0.90194285,-0.7263188,0.6649268,-2.6073256
544,2026-05-11 16:07:07.559984,0.7778503,-0.19958481,-0.90194285,-0.7263188,0.6649268,-2.6073256
545,2026-05-11 16:07:07.562524,0.7778503,-0.19958481,-0.90194285,-0.7263188,0.6649268,-2.6073256
546,2026-05-11 16:07:07.565221,0.7778503,-0.19958481,-0.90194285,-0.7263188,0.6649268,-2.6073256
547,2026-05-11 16:07:07.568321,0.7778503,-0.19958481,-0.90194285,-0.7263188,0.6649268,-2.6073256
548,2026-05-11 16:07:07.571063,0.7778503,-0.19958481,-0.90194285,-0.7263188,0.6649268,-2.6073256
549,2026-05-11 16:07:07.573622,0.7778503,-0.19958481,-0.90194285,-0.7263188,0.6649268,-2.6073256
550,2026-05-11 16:07:07.576311,0.7778503,-0.19958481,-0.90194285,-0.7263188,0.6649268,-2.6073256
551,2026-05-11 16:07:07.578875,0.7778503,-0.19958481,-0.90194285,-0.7263188,0.6649268,-2.6073256
552,2026-05-11 16:07:07.581430,0.7778503,-0.19958481,-0.90194285,-0.7263188,0.6649268,-2.6073256
553,2026-05-11 16:07:07.584464,0.7778503,-0.19958481,-0.90194285,-0.7263188,0.6649268,-2.6073256
554,2026-05-11 16:07:07.587138,0.7778503,-0.19958481,-0.90194285,-0.7263188,0.6649268,-2.6073256
555,2026-05-11 16:07:07.589699,0.7778503,-0.19958481,-0.90194285,-0.7263188,0.6649268,-2.6073256
556,2026-05-11 16:07:07.592500,0.7778503,-0.19958481,-0.90194285,-0.7263188,0.6649268,-2.6073256
557,2026-05-11 16:07:07.595140,0.7778503,-0.19958481,-0.90194285,-0.7263188,0.6649268,-2.6073256
558,2026-05-11 16:07:07.597744,0.7778503,-0.19958481,-0.90194285,-0.7263188,0.6649268,-2.6073256
559,2026-05-11 16:07:07.600702,0.7778503,-0.19958481,-0.90194285,-0.7263188,0.6649268,-2.6073256
560,2026-05-11 16:07:07.603360,0.7778503,-0.19958481,-0.90194285,-0.7263188,0.6649268,-2.6073256
561,2026-05-11 16:07:07.606159,0.7778503,-0.19958481,-0.90194285,-0.7263188,0.6649268,-2.6073256
562,2026-05-11 16:07:07.608901,0.68833286,-0.17720546,-0.7898022,-0.7263188,0.6649268,-2.6073256
563,2026-05-11 16:07:07.611611,0.68833286,-0.17720546,-0.7898022,-0.7263188,0.6649268,-2.6073256
564,2026-05-11 16:07:07.614280,0.620524,-0.090919934,-0.61649936,-0.49296826,0.31856623,-2.304642
565,2026-05-11 16:07:07.617150,0.620524,-0.090919934,-0.61649936,-0.49296826,0.31856623,-2.304642
566,2026-05-11 16:07:07.620652,0.620524,-0.090919934,-0.61649936,-0.49296826,0.31856623,-2.304642
567,2026-05-11 16:07:07.623382,0.620524,-0.090919934,-0.61649936,-0.49296826,0.31856623,-2.304642
568,2026-05-11 16:07:07.626010,0.620524,-0.090919934,-0.61649936,-0.49296826,0.31856623,-2.304642
569,2026-05-11 16:07:07.628740,0.620524,-0.090919934,-0.61649936,-0.49296826,0.31856623,-2.304642
570,2026-05-11 16:07:07.631308,0.620524,-0.090919934,-0.61649936,-0.49296826,0.31856623,-2.304642
571,2026-05-11 16:07:07.634080,0.620524,-0.090919934,-0.61649936,-0.49296826,0.31856623,-2.304642
572,2026-05-11 16:07:07.637294,0.620524,-0.090919934,-0.61649936,-0.12950343,-0.14462234,-2.1329887
573,2026-05-11 16:07:07.640161,0.620524,-0.090919934,-0.61649936,-0.12950343,-0.14462234,-2.1329887
574,2026-05-11 16:07:07.642783,0.620524,-0.090919934,-0.61649936,-0.12950343,-0.14462234,-2.1329887
575,2026-05-11 16:07:07.645353,0.620524,-0.090919934,-0.61649936,-0.12950343,-0.14462234,-2.1329887
576,2026-05-11 16:07:07.648225,0.620524,-0.090919934,-0.61649936,-0.12950343,-0.14462234,-2.1329887
577,2026-05-11 16:07:07.651169,0.620524,-0.090919934,-0.61649936,-0.12950343,-0.14462234,-2.1329887
578,2026-05-11 16:07:07.653998,0.620524,-0.090919934,-0.61649936,-0.12950343,-0.14462234,-2.1329887
579,2026-05-11 16:07:07.656742,0.620524,-0.090919934,-0.61649936,-0.12950343,-0.14462234,-2.1329887
580,2026-05-11 16:07:07.659471,0.67199045,0.058844898,-0.5380192,-0.12950343,-0.14462234,-2.1329887
581,2026-05-11 16:07:07.662129,0.67199045,0.058844898,-0.5380192,-0.12950343,-0.14462234,-2.1329887
582,2026-05-11 16:07:07.664742,0.67199045,0.058844898,-0.5380192,-0.12950343,-0.14462234,-2.1329887
583,2026-05-11 16:07:07.667747,0.6999189,0.20556077,-0.60808426,0.13133603,-0.56169057,-2.1277964
584,2026-05-11 16:07:07.671083,0.6999189,0.20556077,-0.60808426,0.13133603,-0.56169057,-2.1277964
585,2026-05-11 16:07:07.673926,0.6999189,0.20556077,-0.60808426,0.13133603,-0.56169057,-2.1277964
586,2026-05-11 16:07:07.676576,0.6999189,0.20556077,-0.60808426,0.13133603,-0.56169057,-2.1277964
587,2026-05-11 16:07:07.679392,0.6999189,0.20556077,-0.60808426,0.13133603,-0.56169057,-2.1277964
588,2026-05-11 16:07:07.682181,0.6999189,0.20556077,-0.60808426,0.1956296,-1.0010555,-2.223855
589,2026-05-11 16:07:07.685632,0.6999189,0.20556077,-0.60808426,0.1956296,-1.0010555,-2.223855
590,2026-05-11 16:07:07.688711,0.5601546,0.28940713,-0.76614225,0.1956296,-1.0010555,-2.223855
591,2026-05-11 16:07:07.691363,0.5601546,0.28940713,-0.76614225,0.1956296,-1.0010555,-2.223855
592,2026-05-11 16:07:07.693891,0.5601546,0.28940713,-0.76614225,0.1956296,-1.0010555,-2.223855
593,2026-05-11 16:07:07.696426,0.5601546,0.28940713,-0.76614225,0.1956296,-1.0010555,-2.223855
594,2026-05-11 16:07:07.698949,0.5601546,0.28940713,-0.76614225,0.1956296,-1.0010555,-2.223855
595,2026-05-11 16:07:07.702540,0.5601546,0.28940713,-0.76614225,0.1956296,-1.0010555,-2.223855
596,2026-05-11 16:07:07.705281,0.5601546,0.28940713,-0.76614225,0.1956296,-1.0010555,-2.223855
597,2026-05-11 16:07:07.707917,0.5601546,0.28940713,-0.76614225,0.1956296,-1.0010555,-2.223855
598,2026-05-11 16:07:07.710680,0.5601546,0.28940713,-0.76614225,0.1956296,-1.0010555,-2.223855
599,2026-05-11 16:07:07.713311,0.5601546,0.28940713,-0.76614225,0.1956296,-1.0010555,-2.223855
600,2026-05-11 16:07:07.716160,0.5601546,0.28940713,-0.76614225,0.1956296,-1.0010555,-2.223855
601,2026-05-11 16:07:07.719170,0.5601546,0.28940713,-0.76614225,0.1956296,-1.0010555,-2.223855
602,2026-05-11 16:07:07.721971,0.5601546,0.28940713,-0.76614225,0.1956296,-1.0010555,-2.223855
603,2026-05-11 16:07:07.724730,0.5601546,0.28940713,-0.76614225,0.1956296,-1.0010555,-2.223855
604,2026-05-11 16:07:07.727341,0.5601546,0.28940713,-0.76614225,0.1956296,-1.0010555,-2.223855
605,2026-05-11 16:07:07.730152,0.5601546,0.28940713,-0.76614225,0.1956296,-1.0010555,-2.223855
606,2026-05-11 16:07:07.732934,0.5601546,0.28940713,-0.76614225,0.1956296,-1.0010555,-2.223855
607,2026-05-11 16:07:07.735919,0.5601546,0.28940713,-0.76614225,0.1956296,-1.0010555,-2.223855
608,2026-05-11 16:07:07.738576,0.5601546,0.28940713,-0.76614225,0.1956296,-1.0010555,-2.223855
609,2026-05-11 16:07:07.741173,0.5601546,0.28940713,-0.76614225,0.1956296,-1.0010555,-2.223855
610,2026-05-11 16:07:07.743734,0.5601546,0.28940713,-0.76614225,0.1956296,-1.0010555,-2.223855
611,2026-05-11 16:07:07.746409,0.5601546,0.28940713,-0.76614225,-0.08002335,-1.155299,-2.194228
612,2026-05-11 16:07:07.749121,0.5601546,0.28940713,-0.76614225,-0.08002335,-1.155299,-2.194228
613,2026-05-11 16:07:07.752267,0.36160645,0.29867595,-0.79029,-0.37858373,-0.9831876,-2.0442605
614,2026-05-11 16:07:07.754964,0.36160645,0.29867595,-0.79029,-0.37858373,-0.9831876,-2.0442605
615,2026-05-11 16:07:07.757573,0.23501371,0.31477445,-0.69290626,-0.37858373,-0.9831876,-2.0442605
616,2026-05-11 16:07:07.760282,0.23501371,0.31477445,-0.69290626,-0.37858373,-0.9831876,-2.0442605
617,2026-05-11 16:07:07.762815,0.23501371,0.31477445,-0.69290626,-0.37858373,-0.9831876,-2.0442605
618,2026-05-11 16:07:07.765513,0.23501371,0.31477445,-0.69290626,-0.37858373,-0.9831876,-2.0442605
619,2026-05-11 16:07:07.768337,0.23501371,0.31477445,-0.69290626,-0.37858373,-0.9831876,-2.0442605
620,2026-05-11 16:07:07.771060,0.23501371,0.31477445,-0.69290626,-0.37858373,-0.9831876,-2.0442605
621,2026-05-11 16:07:07.773777,0.23501371,0.31477445,-0.69290626,-0.37858373,-0.9831876,-2.0442605
622,2026-05-11 16:07:07.776336,0.23501371,0.31477445,-0.69290626,-0.37858373,-0.9831876,-2.0442605
623,2026-05-11 16:07:07.778902,0.23501371,0.31477445,-0.69290626,-0.37858373,-0.9831876,-2.0442605
624,2026-05-11 16:07:07.781442,0.23501371,0.31477445,-0.69290626,-0.37858373,-0.9831876,-2.0442605
625,2026-05-11 16:07:07.784728,0.23501371,0.31477445,-0.69290626,-0.37858373,-0.9831876,-2.0442605
626,2026-05-11 16:07:07.787435,0.23501371,0.31477445,-0.69290626,-0.37858373,-0.9831876,-2.0442605
627,2026-05-11 16:07:07.790032,0.23501371,0.31477445,-0.69290626,-0.37858373,-0.9831876,-2.0442605
628,2026-05-11 16:07:07.792608,0.23501371,0.31477445,-0.69290626,-0.37858373,-0.9831876,-2.0442605
629,2026-05-11 16:07:07.795148,0.23501371,0.31477445,-0.69290626,-0.37858373,-0.9831876,-2.0442605
630,2026-05-11 16:07:07.797975,0.23501371,0.31477445,-0.69290626,-0.37858373,-0.9831876,-2.0442605
631,2026-05-11 16:07:07.800928,0.23501371,0.31477445,-0.69290626,-0.37858373,-0.9831876,-2.0442605
632,2026-05-11 16:07:07.803714,0.23501371,0.31477445,-0.69290626,-0.37858373,-0.9831876,-2.0442605
633,2026-05-11 16:07:07.806356,0.23501371,0.31477445,-0.69290626,-0.6426302,-0.6293439,-1.8203784
634,2026-05-11 16:07:07.808909,0.23501371,0.31477445,-0.69290626,-0.6426302,-0.6293439,-1.8203784
635,2026-05-11 16:07:07.811595,0.23501371,0.31477445,-0.69290626,-0.6426302,-0.6293439,-1.8203784
636,2026-05-11 16:07:07.814360,0.23501371,0.31477445,-0.69290626,-0.6426302,-0.6293439,-1.8203784
637,2026-05-11 16:07:07.817354,0.23501371,0.31477445,-0.69290626,-0.6426302,-0.6293439,-1.8203784
638,2026-05-11 16:07:07.820207,0.23501371,0.31477445,-0.69290626,-0.6426302,-0.6293439,-1.8203784
639,2026-05-11 16:07:07.822869,0.23501371,0.31477445,-0.69290626,-0.6426302,-0.6293439,-1.8203784
640,2026-05-11 16:07:07.825465,0.23501371,0.31477445,-0.69290626,-0.6426302,-0.6293439,-1.8203784
641,2026-05-11 16:07:07.828302,0.23501371,0.31477445,-0.69290626,-0.6426302,-0.6293439,-1.8203784
642,2026-05-11 16:07:07.830906,0.23501371,0.31477445,-0.69290626,-0.6426302,-0.6293439,-1.8203784
643,2026-05-11 16:07:07.833920,0.12287302,0.34191018,-0.520945,-0.9448558,-0.12950343,-1.6426166
644,2026-05-11 16:07:07.836720,0.12287302,0.34191018,-0.520945,-0.9448558,-0.12950343,-1.6426166
645,2026-05-11 16:07:07.839276,0.12287302,0.34191018,-0.520945,-0.9448558,-0.12950343,-1.6426166
646,2026-05-11 16:07:07.842137,0.12287302,0.34191018,-0.520945,-0.9448558,-0.12950343,-1.6426166
647,2026-05-11 16:07:07.844759,0.12287302,0.34191018,-0.520945,-0.9448558,-0.12950343,-1.6426166
648,2026-05-11 16:07:07.847362,0.12287302,0.34191018,-0.520945,-0.9448558,-0.12950343,-1.6426166
649,2026-05-11 16:07:07.850437,0.12287302,0.34191018,-0.520945,-0.9448558,-0.12950343,-1.6426166
650,2026-05-11 16:07:07.853129,0.12287302,0.34191018,-0.520945,-0.9448558,-0.12950343,-1.6426166
651,2026-05-11 16:07:07.855746,0.12287302,0.34191018,-0.520945,-0.9448558,-0.12950343,-1.6426166
652,2026-05-11 16:07:07.858361,0.12287302,0.34191018,-0.520945,-0.9448558,-0.12950343,-1.6426166
653,2026-05-11 16:07:07.861179,0.12287302,0.34191018,-0.520945,-0.9448558,-0.12950343,-1.6426166
654,2026-05-11 16:07:07.863785,0.12287302,0.34191018,-0.520945,-0.9448558,-0.12950343,-1.6426166
655,2026-05-11 16:07:07.866402,0.12287302,0.34191018,-0.520945,-0.9448558,-0.12950343,-1.6426166
656,2026-05-11 16:07:07.869571,0.12287302,0.34191018,-0.520945,-0.9448558,-0.12950343,-1.6426166
657,2026-05-11 16:07:07.872320,0.12287302,0.34191018,-0.520945,-0.9448558,-0.12950343,-1.6426166
658,2026-05-11 16:07:07.875027,0.12287302,0.34191018,-0.520945,-0.9448558,-0.12950343,-1.6426166
659,2026-05-11 16:07:07.877658,0.12287302,0.34191018,-0.520945,-0.9448558,-0.12950343,-1.6426166
660,2026-05-11 16:07:07.880426,0.12287302,0.34191018,-0.520945,-0.9448558,-0.12950343,-1.6426166
661,2026-05-11 16:07:07.883130,0.12287302,0.34191018,-0.520945,-0.9448558,-0.12950343,-1.6426166
662,2026-05-11 16:07:07.886515,0.12287302,0.34191018,-0.520945,-0.9448558,-0.12950343,-1.6426166
663,2026-05-11 16:07:07.889174,0.12287302,0.34191018,-0.520945,-0.9448558,-0.12950343,-1.6426166
664,2026-05-11 16:07:07.892010,0.12287302,0.34191018,-0.520945,-0.9448558,-0.12950343,-1.6426166
665,2026-05-11 16:07:07.894725,0.12287302,0.34191018,-0.520945,-0.9448558,-0.12950343,-1.6426166
666,2026-05-11 16:07:07.897493,0.12287302,0.34191018,-0.520945,-0.9448558,-0.12950343,-1.6426166
667,2026-05-11 16:07:07.900817,-0.07585809,0.41807315,-0.48887,-0.9448558,-0.12950343,-1.6426166
668,2026-05-11 16:07:07.903687,-0.07585809,0.41807315,-0.48887,-1.0064005,0.0355829,-1.5528195
669,2026-05-11 16:07:07.906279,-0.07585809,0.41807315,-0.48887,-1.0064005,0.0355829,-1.5528195
670,2026-05-11 16:07:07.909014,-0.07585809,0.41807315,-0.48887,-1.0064005,0.0355829,-1.5528195
671,2026-05-11 16:07:07.911639,-0.07585809,0.41807315,-0.48887,-1.0064005,0.0355829,-1.5528195
672,2026-05-11 16:07:07.914359,-0.07585809,0.41807315,-0.48887,-1.0064005,0.0355829,-1.5528195
673,2026-05-11 16:07:07.917301,-0.07585809,0.41807315,-0.48887,-1.0064005,0.0355829,-1.5528195
674,2026-05-11 16:07:07.920273,-0.07585809,0.41807315,-0.48887,-1.0064005,0.0355829,-1.5528195
675,2026-05-11 16:07:07.922945,-0.07585809,0.41807315,-0.48887,-1.0064005,0.0355829,-1.5528195
676,2026-05-11 16:07:07.925545,-0.07585809,0.41807315,-0.48887,-1.0064005,0.0355829,-1.5528195
677,2026-05-11 16:07:07.928337,-0.07585809,0.41807315,-0.48887,-1.0064005,0.0355829,-1.5528195
678,2026-05-11 16:07:07.930967,-0.07585809,0.41807315,-0.48887,-1.0064005,0.0355829,-1.5528195
679,2026-05-11 16:07:07.933883,-0.07585809,0.41807315,-0.48887,-1.0064005,0.0355829,-1.5528195
680,2026-05-11 16:07:07.936551,-0.07585809,0.41807315,-0.48887,-1.0064005,0.0355829,-1.5528195
681,2026-05-11 16:07:07.939249,-0.07585809,0.41807315,-0.48887,-1.0064005,0.0355829,-1.5528195
682,2026-05-11 16:07:07.941845,-0.07585809,0.41807315,-0.48887,-1.0064005,0.0355829,-1.5528195
683,2026-05-11 16:07:07.944449,-0.07585809,0.41807315,-0.48887,-1.0064005,0.0355829,-1.5528195
684,2026-05-11 16:07:07.947249,-0.07585809,0.41807315,-0.48887,-1.0064005,0.0355829,-1.5528195
685,2026-05-11 16:07:07.950419,-0.07585809,0.41807315,-0.48887,-1.0064005,0.0355829,-1.5528195
686,2026-05-11 16:07:07.953295,-0.07585809,0.41807315,-0.48887,-1.1023064,-0.060170226,-1.0638218
687,2026-05-11 16:07:07.956084,-0.07585809,0.41807315,-0.48887,-1.1023064,-0.060170226,-1.0638218
688,2026-05-11 16:07:07.958696,-0.07585809,0.41807315,-0.48887,-1.1023064,-0.060170226,-1.0638218
689,2026-05-11 16:07:07.961315,-0.07585809,0.41807315,-0.48887,-1.1023064,-0.060170226,-1.0638218
690,2026-05-11 16:07:07.963907,-0.07585809,0.41807315,-0.48887,-1.1023064,-0.060170226,-1.0638218
691,2026-05-11 16:07:07.966806,-0.3817296,0.4422209,-0.5479588,-1.1023064,-0.060170226,-1.0638218
692,2026-05-11 16:07:07.969976,-0.3817296,0.4422209,-0.5479588,-1.1023064,-0.060170226,-1.0638218
693,2026-05-11 16:07:07.972679,-0.3817296,0.4422209,-0.5479588,-1.1023064,-0.060170226,-1.0638218
694,2026-05-11 16:07:07.975278,-0.3817296,0.4422209,-0.5479588,-1.1023064,-0.060170226,-1.0638218
695,2026-05-11 16:07:07.977923,-0.3817296,0.4422209,-0.5479588,-1.1023064,-0.060170226,-1.0638218
696,2026-05-11 16:07:07.980739,-0.3817296,0.4422209,-0.5479588,-1.1023064,-0.060170226,-1.0638218
697,2026-05-11 16:07:07.984897,-0.3817296,0.4422209,-0.5479588,-1.187522,-0.30711251,-0.79381937
698,2026-05-11 16:07:07.988580,-0.3817296,0.4422209,-0.5479588,-1.187522,-0.30711251,-0.79381937
699,2026-05-11 16:07:07.991526,-0.3817296,0.4422209,-0.5479588,-1.187522,-0.30711251,-0.79381937
700,2026-05-11 16:07:07.994757,-0.3817296,0.4422209,-0.5479588,-1.187522,-0.30711251,-0.79381937
701,2026-05-11 16:07:07.997692,-0.3817296,0.4422209,-0.5479588,-1.187522,-0.30711251,-0.79381937
702,2026-05-11 16:07:08.001706,-0.42941532,0.40288937,-0.5803997,-1.187522,-0.30711251,-0.79381937
703,2026-05-11 16:07:08.004783,-0.42941532,0.40288937,-0.5803997,-1.187522,-0.30711251,-0.79381937
704,2026-05-11 16:07:08.007639,-0.5125909,0.55186146,-0.31892106,-1.2618948,-0.6366743,-0.30589077
705,2026-05-11 16:07:08.010415,-0.5125909,0.55186146,-0.31892106,-1.2618948,-0.6366743,-0.30589077
706,2026-05-11 16:07:08.013128,-0.5125909,0.55186146,-0.31892106,-1.2854131,-1.1085677,0.49174652
707,2026-05-11 16:07:08.015733,-0.5125909,0.55186146,-0.31892106,-1.2854131,-1.1085677,0.49174652
708,2026-05-11 16:07:08.018878,-0.5125909,0.55186146,-0.31892106,-1.2854131,-1.1085677,0.49174652
709,2026-05-11 16:07:08.021757,-0.5125909,0.55186146,-0.31892106,-1.2854131,-1.1085677,0.49174652
710,2026-05-11 16:07:08.024378,-0.5125909,0.55186146,-0.31892106,-1.2854131,-1.1085677,0.49174652
711,2026-05-11 16:07:08.027337,-0.5125909,0.55186146,-0.31892106,-1.2854131,-1.1085677,0.49174652
712,2026-05-11 16:07:08.029971,-0.5125909,0.55186146,-0.31892106,-1.2854131,-1.1085677,0.49174652
713,2026-05-11 16:07:08.032602,-0.5125909,0.55186146,-0.31892106,-1.2854131,-1.1085677,0.49174652
714,2026-05-11 16:07:08.035652,-0.35105708,0.68723524,-0.1387276,-1.1917981,-0.982424,0.74082685
715,2026-05-11 16:07:08.038478,-0.35105708,0.68723524,-0.1387276,-1.1917981,-0.982424,0.74082685
716,2026-05-11 16:07:08.041213,-0.35105708,0.68723524,-0.1387276,-1.1917981,-0.982424,0.74082685
717,2026-05-11 16:07:08.043911,-0.35105708,0.68723524,-0.1387276,-1.1917981,-0.982424,0.74082685
718,2026-05-11 16:07:08.046707,-0.35105708,0.68723524,-0.1387276,-1.1917981,-0.982424,0.74082685
719,2026-05-11 16:07:08.049306,-0.35105708,0.68723524,-0.1387276,-1.1917981,-0.982424,0.74082685
720,2026-05-11 16:07:08.052588,-0.35105708,0.68723524,-0.1387276,-1.1917981,-0.982424,0.74082685
721,2026-05-11 16:07:08.055301,-0.35105708,0.68723524,-0.1387276,-1.1917981,-0.982424,0.74082685
722,2026-05-11 16:07:08.058111,-0.2830043,0.80663246,-0.049027253,-1.1917981,-0.982424,0.74082685
723,2026-05-11 16:07:08.060872,-0.2830043,0.80663246,-0.049027253,-1.1917981,-0.982424,0.74082685
724,2026-05-11 16:07:08.063457,-0.2830043,0.80663246,-0.049027253,-1.1917981,-0.982424,0.74082685
725,2026-05-11 16:07:08.066114,-0.2830043,0.80663246,-0.049027253,-1.1917981,-0.982424,0.74082685
726,2026-05-11 16:07:08.069413,-0.2830043,0.80663246,-0.049027253,-1.1917981,-0.982424,0.74082685
727,2026-05-11 16:07:08.072224,-0.2830043,0.80663246,-0.049027253,-1.1917981,-0.982424,0.74082685
728,2026-05-11 16:07:08.074828,-0.2830043,0.80663246,-0.049027253,-1.1917981,-0.982424,0.74082685
729,2026-05-11 16:07:08.077362,-0.2830043,0.80663246,-0.049027253,-1.1917981,-0.982424,0.74082685
730,2026-05-11 16:07:08.080067,-0.2830043,0.80663246,-0.049027253,-1.1917981,-0.982424,0.74082685
731,2026-05-11 16:07:08.082654,-0.2830043,0.80663246,-0.049027253,-1.1917981,-0.982424,0.74082685
732,2026-05-11 16:07:08.085687,-0.2830043,0.80663246,-0.049027253,-1.1917981,-0.982424,0.74082685
733,2026-05-11 16:07:08.088577,-0.2830043,0.80663246,-0.049027253,-1.1917981,-0.982424,0.74082685
734,2026-05-11 16:07:08.091173,-0.2830043,0.80663246,-0.049027253,-1.1917981,-0.982424,0.74082685
735,2026-05-11 16:07:08.093755,-0.2830043,0.80663246,-0.049027253,-1.1917981,-0.982424,0.74082685
736,2026-05-11 16:07:08.096551,-0.2830043,0.80663246,-0.049027253,-1.1917981,-0.982424,0.74082685
737,2026-05-11 16:07:08.099125,-0.2830043,0.80663246,-0.049027253,-1.1917981,-0.982424,0.74082685
738,2026-05-11 16:07:08.102303,-0.2830043,0.80663246,-0.049027253,-1.0199922,-0.75426584,0.79641557
739,2026-05-11 16:07:08.104999,-0.2830043,0.80663246,-0.049027253,-1.0199922,-0.75426584,0.79641557
740,2026-05-11 16:07:08.107562,-0.2830043,0.80663246,-0.049027253,-1.0199922,-0.75426584,0.79641557
741,2026-05-11 16:07:08.110236,-0.2830043,0.80663246,-0.049027253,-1.0199922,-0.75426584,0.79641557
742,2026-05-11 16:07:08.112797,-0.2830043,0.80663246,-0.049027253,-1.0199922,-0.75426584,0.79641557
743,2026-05-11 16:07:08.115508,-0.2830043,0.80663246,-0.049027253,-1.0199922,-0.75426584,0.79641557
744,2026-05-11 16:07:08.118380,-0.2830043,0.80663246,-0.049027253,-1.0199922,-0.75426584,0.79641557
745,2026-05-11 16:07:08.121163,-0.2830043,0.80663246,-0.049027253,-1.0199922,-0.75426584,0.79641557
746,2026-05-11 16:07:08.123885,-0.2830043,0.80663246,-0.049027253,-1.0199922,-0.75426584,0.79641557
747,2026-05-11 16:07:08.126453,-0.2830043,0.80663246,-0.049027253,-1.0199922,-0.75426584,0.79641557
748,2026-05-11 16:07:08.129273,-0.2830043,0.80663246,-0.049027253,-1.0199922,-0.75426584,0.79641557
749,2026-05-11 16:07:08.131906,-0.2830043,0.80663246,-0.049027253,-1.0199922,-0.75426584,0.79641557
750,2026-05-11 16:07:08.134840,-0.2830043,0.80663246,-0.049027253,-1.0199922,-0.75426584,0.79641557
751,2026-05-11 16:07:08.137705,-0.2830043,0.80663246,-0.049027253,-1.0199922,-0.75426584,0.79641557
752,2026-05-11 16:07:08.140417,-0.2830043,0.80663246,-0.049027253,-1.0199922,-0.75426584,0.79641557
753,2026-05-11 16:07:08.143026,-0.2830043,0.80663246,-0.049027253,-1.0199922,-0.75426584,0.79641557
754,2026-05-11 16:07:08.145840,-0.2830043,0.80663246,-0.049027253,-0.6104071,-0.6921103,0.8425359
755,2026-05-11 16:07:08.148429,-0.2830043,0.80663246,-0.049027253,-0.6104071,-0.6921103,0.8425359
756,2026-05-11 16:07:08.151505,-0.2830043,0.80663246,-0.049027253,-0.6104071,-0.6921103,0.8425359
757,2026-05-11 16:07:08.154205,-0.2830043,0.80663246,-0.049027253,-0.6104071,-0.6921103,0.8425359
758,2026-05-11 16:07:08.156793,-0.2830043,0.80663246,-0.049027253,-0.6104071,-0.6921103,0.8425359
759,2026-05-11 16:07:08.159542,-0.2441606,0.92438316,0.0045124586,-0.6104071,-0.6921103,0.8425359
760,2026-05-11 16:07:08.162306,-0.2441606,0.92438316,0.0045124586,-0.6104071,-0.6921103,0.8425359
761,2026-05-11 16:07:08.164945,-0.2441606,0.92438316,0.0045124586,-0.6104071,-0.6921103,0.8425359
762,2026-05-11 16:07:08.168154,-0.2441606,0.92438316,0.0045124586,-0.6104071,-0.6921103,0.8425359
763,2026-05-11 16:07:08.170956,-0.2441606,0.92438316,0.0045124586,-0.6104071,-0.6921103,0.8425359
764,2026-05-11 16:07:08.173537,-0.2441606,0.92438316,0.0045124586,-0.6104071,-0.6921103,0.8425359
765,2026-05-11 16:07:08.176251,-0.2441606,0.92438316,0.0045124586,-0.6104071,-0.6921103,0.8425359
766,2026-05-11 16:07:08.178957,-0.2441606,0.92438316,0.0045124586,-0.6104071,-0.6921103,0.8425359
767,2026-05-11 16:07:08.181744,-0.2441606,0.92438316,0.0045124586,-0.6104071,-0.6921103,0.8425359
768,2026-05-11 16:07:08.186917,-0.2441606,0.92438316,0.0045124586,-0.6104071,-0.6921103,0.8425359
769,2026-05-11 16:07:08.203443,-0.2441606,0.92438316,0.0045124586,-0.6104071,-0.6921103,0.8425359
770,2026-05-11 16:07:08.206528,-0.2441606,0.92438316,0.0045124586,-0.6104071,-0.6921103,0.8425359
771,2026-05-11 16:07:08.209532,-0.2441606,0.92438316,0.0045124586,-0.6104071,-0.6921103,0.8425359
772,2026-05-11 16:07:08.214477,-0.2441606,0.92438316,0.0045124586,-0.45891252,-0.6930266,0.8434522
773,2026-05-11 16:07:08.223302,-0.2441606,0.92438316,0.0045124586,-0.45891252,-0.6930266,0.8434522
774,2026-05-11 16:07:08.226475,-0.2441606,0.92438316,0.0045124586,-0.45891252,-0.6930266,0.8434522
775,2026-05-11 16:07:08.229334,-0.23623328,1.0570738,-0.07982173,-0.45891252,-0.6930266,0.8434522
776,2026-05-11 16:07:08.231988,-0.23623328,1.0570738,-0.07982173,-0.45891252,-0.6930266,0.8434522
777,2026-05-11 16:07:08.234875,-0.23623328,1.0570738,-0.07982173,-0.45891252,-0.6930266,0.8434522
778,2026-05-11 16:07:08.237653,-0.23623328,1.0570738,-0.07982173,-0.122783914,-0.5731443,0.8268061
779,2026-05-11 16:07:08.240217,-0.23623328,1.0570738,-0.07982173,-0.122783914,-0.5731443,0.8268061
780,2026-05-11 16:07:08.243127,-0.23623328,1.0570738,-0.07982173,-0.122783914,-0.5731443,0.8268061
781,2026-05-11 16:07:08.245912,-0.23623328,1.0570738,-0.07982173,-0.122783914,-0.5731443,0.8268061
782,2026-05-11 16:07:08.248618,-0.23623328,1.0570738,-0.07982173,-0.122783914,-0.5731443,0.8268061
783,2026-05-11 16:07:08.251743,-0.23623328,1.0570738,-0.07982173,-0.122783914,-0.5731443,0.8268061
784,2026-05-11 16:07:08.254522,-0.23623328,1.0570738,-0.07982173,-0.012064588,-0.34895676,0.81413066
785,2026-05-11 16:07:08.257107,-0.23623328,1.0570738,-0.07982173,-0.012064588,-0.34895676,0.81413066
786,2026-05-11 16:07:08.259840,-0.23623328,1.0570738,-0.07982173,-0.012064588,-0.34895676,0.81413066
787,2026-05-11 16:07:08.262368,-0.23623328,1.0570738,-0.07982173,-0.012064588,-0.34895676,0.81413066
788,2026-05-11 16:07:08.265180,-0.23623328,1.0570738,-0.07982173,-0.012064588,-0.34895676,0.81413066
789,2026-05-11 16:07:08.268288,-0.23623328,1.0570738,-0.07982173,-0.012064588,-0.34895676,0.81413066
790,2026-05-11 16:07:08.270936,-0.23623328,1.0570738,-0.07982173,-0.012064588,-0.34895676,0.81413066
791,2026-05-11 16:07:08.273750,-0.33751968,1.1423227,-0.17153439,-0.012064588,-0.34895676,0.81413066
792,2026-05-11 16:07:08.276259,-0.33751968,1.1423227,-0.17153439,-0.012064588,-0.34895676,0.81413066
793,2026-05-11 16:07:08.278825,-0.33751968,1.1423227,-0.17153439,-0.012064588,-0.34895676,0.81413066
794,2026-05-11 16:07:08.281322,-0.33751968,1.1423227,-0.17153439,-0.012064588,-0.34895676,0.81413066
795,2026-05-11 16:07:08.284381,-0.33751968,1.1423227,-0.17153439,-0.012064588,-0.34895676,0.81413066
796,2026-05-11 16:07:08.287091,-0.33751968,1.1423227,-0.17153439,-0.012064588,-0.34895676,0.81413066
797,2026-05-11 16:07:08.289658,-0.33751968,1.1423227,-0.17153439,-0.012064588,-0.34895676,0.81413066
798,2026-05-11 16:07:08.292314,-0.33751968,1.1423227,-0.17153439,-0.012064588,-0.34895676,0.81413066
799,2026-05-11 16:07:08.294867,-0.33751968,1.1423227,-0.17153439,-0.012064588,-0.34895676,0.81413066
800,2026-05-11 16:07:08.297477,-0.33751968,1.1423227,-0.17153439,-0.012064588,-0.34895676,0.81413066
801,2026-05-11 16:07:08.300060,-0.33751968,1.1423227,-0.17153439,-0.012064588,-0.34895676,0.81413066
802,2026-05-11 16:07:08.303269,-0.33751968,1.1423227,-0.17153439,-0.012064588,-0.34895676,0.81413066
803,2026-05-11 16:07:08.305856,-0.33751968,1.1423227,-0.17153439,-0.012064588,-0.34895676,0.81413066
804,2026-05-11 16:07:08.308398,-0.33751968,1.1423227,-0.17153439,-0.012064588,-0.34895676,0.81413066
805,2026-05-11 16:07:08.310961,-0.33751968,1.1423227,-0.17153439,-0.012064588,-0.34895676,0.81413066
806,2026-05-11 16:07:08.313562,-0.33751968,1.1423227,-0.17153439,-0.012064588,-0.34895676,0.81413066
807,2026-05-11 16:07:08.316106,-0.33751968,1.1423227,-0.17153439,-0.012064588,-0.34895676,0.81413066
808,2026-05-11 16:07:08.319113,-0.33751968,1.1423227,-0.17153439,-0.012064588,-0.34895676,0.81413066
809,2026-05-11 16:07:08.321795,-0.33751968,1.1423227,-0.17153439,-0.012064588,-0.34895676,0.81413066
810,2026-05-11 16:07:08.324372,-0.33751968,1.1423227,-0.17153439,-0.012064588,-0.34895676,0.81413066
811,2026-05-11 16:07:08.327010,-0.33751968,1.1423227,-0.17153439,-0.012064588,-0.34895676,0.81413066
812,2026-05-11 16:07:08.329594,-0.33751968,1.1423227,-0.17153439,-0.012064588,-0.34895676,0.81413066
813,2026-05-11 16:07:08.332166,-0.33751968,1.1423227,-0.17153439,-0.012064588,-0.34895676,0.81413066
814,2026-05-11 16:07:08.335403,-0.33751968,1.1423227,-0.17153439,-0.012064588,-0.34895676,0.81413066
815,2026-05-11 16:07:08.338183,-0.33751968,1.1423227,-0.17153439,-0.012064588,-0.34895676,0.81413066
816,2026-05-11 16:07:08.340845,-0.33751968,1.1423227,-0.17153439,-0.012064588,-0.34895676,0.81413066
817,2026-05-11 16:07:08.343598,-0.33751968,1.1423227,-0.17153439,-0.012064588,-0.34895676,0.81413066
818,2026-05-11 16:07:08.346208,-0.33751968,1.1423227,-0.17153439,-0.012064588,-0.34895676,0.81413066
819,2026-05-11 16:07:08.349065,-0.33751968,1.1423227,-0.17153439,-0.012064588,-0.34895676,0.81413066
820,2026-05-11 16:07:08.352173,-0.33751968,1.1423227,-0.17153439,-0.012064588,-0.34895676,0.81413066
821,2026-05-11 16:07:08.354962,-0.33751968,1.1423227,-0.17153439,-0.012064588,-0.34895676,0.81413066
822,2026-05-11 16:07:08.357556,-0.33751968,1.1423227,-0.17153439,-0.012064588,-0.34895676,0.81413066
823,2026-05-11 16:07:08.360291,-0.33751968,1.1423227,-0.17153439,-0.012064588,-0.34895676,0.81413066
824,2026-05-11 16:07:08.363150,-0.5291162,1.1972649,-0.27684543,-0.06918049,-0.1470658,0.9958631
825,2026-05-11 16:07:08.365791,-0.5291162,1.1972649,-0.27684543,-0.06918049,-0.1470658,0.9958631
826,2026-05-11 16:07:08.368833,-0.5291162,1.1972649,-0.27684543,-0.06918049,-0.1470658,0.9958631
827,2026-05-11 16:07:08.371577,-0.5291162,1.1972649,-0.27684543,-0.06918049,-0.1470658,0.9958631
828,2026-05-11 16:07:08.374169,-0.5291162,1.1972649,-0.27684543,-0.06918049,-0.1470658,0.9958631
829,2026-05-11 16:07:08.376970,-0.5291162,1.1972649,-0.27684543,-0.06918049,-0.1470658,0.9958631
830,2026-05-11 16:07:08.379582,-0.5291162,1.1972649,-0.27684543,-0.06918049,-0.1470658,0.9958631
831,2026-05-11 16:07:08.382426,-0.5291162,1.1972649,-0.27684543,-0.06918049,-0.1470658,0.9958631
832,2026-05-11 16:07:08.385456,-0.5291162,1.1972649,-0.27684543,-0.06918049,-0.1470658,0.9958631
833,2026-05-11 16:07:08.388190,-0.5291162,1.1972649,-0.27684543,-0.06918049,-0.1470658,0.9958631
834,2026-05-11 16:07:08.390795,-0.623634,1.2820259,-0.3670336,-0.06918049,-0.1470658,0.9958631
835,2026-05-11 16:07:08.393597,-0.623634,1.2820259,-0.3670336,-0.06918049,-0.1470658,0.9958631
836,2026-05-11 16:07:08.396179,-0.623634,1.2820259,-0.3670336,-0.06918049,-0.1470658,0.9958631
837,2026-05-11 16:07:08.398816,-0.623634,1.2820259,-0.3670336,-0.06918049,-0.1470658,0.9958631
838,2026-05-11 16:07:08.401639,-0.623634,1.2820259,-0.3670336,-0.06918049,-0.1470658,0.9958631
839,2026-05-11 16:07:08.405223,-0.623634,1.2820259,-0.3670336,-0.06918049,-0.1470658,0.9958631
840,2026-05-11 16:07:08.408102,-0.623634,1.2820259,-0.3670336,-0.06918049,-0.1470658,0.9958631
841,2026-05-11 16:07:08.410733,-0.623634,1.2820259,-0.3670336,-0.06918049,-0.1470658,0.9958631
842,2026-05-11 16:07:08.413356,-0.623634,1.2820259,-0.3670336,-0.06918049,-0.1470658,0.9958631
843,2026-05-11 16:07:08.415920,-0.623634,1.2820259,-0.3670336,-0.06918049,-0.1470658,0.9958631
844,2026-05-11 16:07:08.418790,-0.623634,1.2820259,-0.3670336,-0.06918049,-0.1470658,0.9958631
845,2026-05-11 16:07:08.422483,-0.623634,1.2820259,-0.3670336,-0.2742785,0.028710667,1.4535538
846,2026-05-11 16:07:08.425191,-0.623634,1.2820259,-0.3670336,-0.2742785,0.028710667,1.4535538
847,2026-05-11 16:07:08.427793,-0.623634,1.2820259,-0.3670336,-0.2742785,0.028710667,1.4535538
848,2026-05-11 16:07:08.430497,-0.623634,1.2820259,-0.3670336,-0.2742785,0.028710667,1.4535538
849,2026-05-11 16:07:08.433080,-0.623634,1.2820259,-0.3670336,-0.2742785,0.028710667,1.4535538
850,2026-05-11 16:07:08.436372,-0.623634,1.2820259,-0.3670336,-0.2742785,0.028710667,1.4535538
851,2026-05-11 16:07:08.439019,-0.623634,1.2820259,-0.3670336,-0.2742785,0.028710667,1.4535538
852,2026-05-11 16:07:08.441776,-0.623634,1.2820259,-0.3670336,-0.2742785,0.028710667,1.4535538
853,2026-05-11 16:07:08.444374,-0.623634,1.2820259,-0.3670336,-0.2742785,0.028710667,1.4535538
854,2026-05-11 16:07:08.447126,-0.623634,1.2820259,-0.3670336,-0.43249258,0.1020145,1.7525724
855,2026-05-11 16:07:08.450059,-0.623634,1.2820259,-0.3670336,-0.43249258,0.1020145,1.7525724
856,2026-05-11 16:07:08.452913,-0.623634,1.2820259,-0.3670336,-0.43249258,0.1020145,1.7525724
857,2026-05-11 16:07:08.455661,-0.623634,1.2820259,-0.3670336,-0.43249258,0.1020145,1.7525724
858,2026-05-11 16:07:08.458425,-0.623634,1.2820259,-0.3670336,-0.43249258,0.1020145,1.7525724
859,2026-05-11 16:07:08.461219,-0.623634,1.2820259,-0.3670336,-0.43249258,0.1020145,1.7525724
860,2026-05-11 16:07:08.463921,-0.623634,1.2820259,-0.3670336,-0.43249258,0.1020145,1.7525724
861,2026-05-11 16:07:08.466810,-0.623634,1.2820259,-0.3670336,-0.43249258,0.1020145,1.7525724
862,2026-05-11 16:07:08.469880,-0.623634,1.2820259,-0.3670336,-0.43249258,0.1020145,1.7525724
863,2026-05-11 16:07:08.472691,-0.623634,1.2820259,-0.3670336,-0.43249258,0.1020145,1.7525724
864,2026-05-11 16:07:08.475298,-0.623634,1.2820259,-0.3670336,-0.43249258,0.1020145,1.7525724
865,2026-05-11 16:07:08.478112,-0.623634,1.2820259,-0.3670336,-0.43249258,0.1020145,1.7525724
866,2026-05-11 16:07:08.480772,-0.623634,1.2820259,-0.3670336,-0.43249258,0.1020145,1.7525724
867,2026-05-11 16:07:08.483718,-0.623634,1.2820259,-0.3670336,-0.43249258,0.1020145,1.7525724
868,2026-05-11 16:07:08.486559,-0.6122918,1.3215406,-0.41508517,-0.43249258,0.1020145,1.7525724
869,2026-05-11 16:07:08.489398,-0.6122918,1.3215406,-0.41508517,-0.43249258,0.1020145,1.7525724
870,2026-05-11 16:07:08.491991,-0.6122918,1.3215406,-0.41508517,-0.43249258,0.1020145,1.7525724
871,2026-05-11 16:07:08.494752,-0.6122918,1.3215406,-0.41508517,-0.43249258,0.1020145,1.7525724
872,2026-05-11 16:07:08.497351,-0.6122918,1.3215406,-0.41508517,-0.43249258,0.1020145,1.7525724
873,2026-05-11 16:07:08.500472,-0.6122918,1.3215406,-0.41508517,-0.43249258,0.1020145,1.7525724
874,2026-05-11 16:07:08.503189,-0.6122918,1.3215406,-0.41508517,-0.43249258,0.1020145,1.7525724
875,2026-05-11 16:07:08.505962,-0.6122918,1.3215406,-0.41508517,-0.43249258,0.1020145,1.7525724
876,2026-05-11 16:07:08.508598,-0.6122918,1.3215406,-0.41508517,-0.43249258,0.1020145,1.7525724
877,2026-05-11 16:07:08.511168,-0.6122918,1.3215406,-0.41508517,-0.43249258,0.1020145,1.7525724
878,2026-05-11 16:07:08.513833,-0.6122918,1.3215406,-0.41508517,-0.43249258,0.1020145,1.7525724
879,2026-05-11 16:07:08.516764,-0.6122918,1.3215406,-0.41508517,-0.43249258,0.1020145,1.7525724
880,2026-05-11 16:07:08.519976,-0.6122918,1.3215406,-0.41508517,-0.43249258,0.1020145,1.7525724
881,2026-05-11 16:07:08.522844,-0.6122918,1.3215406,-0.41508517,-0.43249258,0.1020145,1.7525724
882,2026-05-11 16:07:08.525703,-0.6122918,1.3215406,-0.41508517,-0.43249258,0.1020145,1.7525724
883,2026-05-11 16:07:08.528440,-0.59698606,1.3770925,-0.50789547,-0.7480045,-0.08109236,2.2777638
884,2026-05-11 16:07:08.531193,-0.59698606,1.3770925,-0.50789547,-0.7480045,-0.08109236,2.2777638
885,2026-05-11 16:07:08.534236,-0.59698606,1.3770925,-0.50789547,-0.7480045,-0.08109236,2.2777638
886,2026-05-11 16:07:08.537186,-0.59698606,1.3770925,-0.50789547,-0.7480045,-0.08109236,2.2777638
887,2026-05-11 16:07:08.539779,-0.59698606,1.3770925,-0.50789547,-0.7480045,-0.08109236,2.2777638
888,2026-05-11 16:07:08.542494,-0.59698606,1.3770925,-0.50789547,-0.7480045,-0.08109236,2.2777638
889,2026-05-11 16:07:08.545326,-0.53838503,1.396362,-0.52801865,-0.99067074,-0.25717425,2.5879307
890,2026-05-11 16:07:08.548024,-0.53838503,1.396362,-0.52801865,-0.99067074,-0.25717425,2.5879307
891,2026-05-11 16:07:08.551293,-0.53838503,1.396362,-0.52801865,-0.99067074,-0.25717425,2.5879307
892,2026-05-11 16:07:08.554098,-0.53838503,1.396362,-0.52801865,-0.99067074,-0.25717425,2.5879307
893,2026-05-11 16:07:08.556671,-0.53838503,1.396362,-0.52801865,-0.99067074,-0.25717425,2.5879307
894,2026-05-11 16:07:08.559431,-0.20854875,1.5431387,-0.5538738,-1.435686,-0.3471242,2.8237245
895,2026-05-11 16:07:08.562024,-0.20854875,1.5431387,-0.5538738,-1.435686,-0.3471242,2.8237245
896,2026-05-11 16:07:08.564585,-0.20854875,1.5431387,-0.5538738,-1.435686,-0.3471242,2.8237245
897,2026-05-11 16:07:08.567795,-0.20854875,1.5431387,-0.5538738,-1.435686,-0.3471242,2.8237245
898,2026-05-11 16:07:08.570651,-0.20854875,1.5431387,-0.5538738,-1.435686,-0.3471242,2.8237245
899,2026-05-11 16:07:08.573478,-0.20854875,1.5431387,-0.5538738,-1.435686,-0.3471242,2.8237245
900,2026-05-11 16:07:08.576240,-0.20854875,1.5431387,-0.5538738,-1.435686,-0.3471242,2.8237245
901,2026-05-11 16:07:08.578955,-0.20854875,1.5431387,-0.5538738,-1.435686,-0.3471242,2.8237245
902,2026-05-11 16:07:08.581566,-0.20854875,1.5431387,-0.5538738,-1.435686,-0.3471242,2.8237245
903,2026-05-11 16:07:08.584977,-0.20854875,1.5431387,-0.5538738,-1.435686,-0.3471242,2.8237245
904,2026-05-11 16:07:08.587879,-0.02274523,1.5961298,-0.5157008,-1.435686,-0.3471242,2.8237245
905,2026-05-11 16:07:08.590552,-0.02274523,1.5961298,-0.5157008,-1.435686,-0.3471242,2.8237245
906,2026-05-11 16:07:08.593149,-0.02274523,1.5961298,-0.5157008,-1.435686,-0.3471242,2.8237245
907,2026-05-11 16:07:08.595845,-0.02274523,1.5961298,-0.5157008,-1.435686,-0.3471242,2.8237245
908,2026-05-11 16:07:08.598440,-0.02274523,1.5961298,-0.5157008,-1.435686,-0.3471242,2.8237245
909,2026-05-11 16:07:08.601902,-0.02274523,1.5961298,-0.5157008,-1.435686,-0.3471242,2.8237245
910,2026-05-11 16:07:08.604651,-0.02274523,1.5961298,-0.5157008,-1.435686,-0.3471242,2.8237245
911,2026-05-11 16:07:08.607271,-0.02274523,1.5961298,-0.5157008,-1.435686,-0.3471242,2.8237245
912,2026-05-11 16:07:08.609987,-0.02274523,1.5961298,-0.5157008,-1.435686,-0.3471242,2.8237245
913,2026-05-11 16:07:08.612591,-0.02274523,1.5961298,-0.5157008,-1.435686,-0.3471242,2.8237245
914,2026-05-11 16:07:08.615557,-0.02274523,1.5961298,-0.5157008,-1.435686,-0.3471242,2.8237245
915,2026-05-11 16:07:08.618714,-0.04927117,1.5979592,-0.44911155,-1.7757853,-0.14508049,2.7165177
916,2026-05-11 16:07:08.621486,-0.04927117,1.5979592,-0.44911155,-1.7757853,-0.14508049,2.7165177
917,2026-05-11 16:07:08.624101,-0.04927117,1.5979592,-0.44911155,-1.9150625,0.09850202,2.6203065
918,2026-05-11 16:07:08.626784,-0.04927117,1.5979592,-0.44911155,-1.9150625,0.09850202,2.6203065
919,2026-05-11 16:07:08.629338,-0.04927117,1.5979592,-0.44911155,-1.9150625,0.09850202,2.6203065
920,2026-05-11 16:07:08.632094,-0.04927117,1.5979592,-0.44911155,-1.9150625,0.09850202,2.6203065
921,2026-05-11 16:07:08.635021,-0.04927117,1.5979592,-0.44911155,-1.9150625,0.09850202,2.6203065
922,2026-05-11 16:07:08.637795,-0.04927117,1.5979592,-0.44911155,-1.9150625,0.09850202,2.6203065
923,2026-05-11 16:07:08.640390,-0.04927117,1.5979592,-0.44911155,-1.9150625,0.09850202,2.6203065
924,2026-05-11 16:07:08.642954,-0.04927117,1.5979592,-0.44911155,-1.9150625,0.09850202,2.6203065
925,2026-05-11 16:07:08.645831,-0.04927117,1.5979592,-0.44911155,-1.9150625,0.09850202,2.6203065
926,2026-05-11 16:07:08.648569,-0.04927117,1.5979592,-0.44911155,-1.9144517,0.5112942,2.5583036
927,2026-05-11 16:07:08.651647,-0.04927117,1.5979592,-0.44911155,-1.9144517,0.5112942,2.5583036
928,2026-05-11 16:07:08.654351,-0.04927117,1.5979592,-0.44911155,-1.9144517,0.5112942,2.5583036
929,2026-05-11 16:07:08.656930,-0.04927117,1.5979592,-0.44911155,-1.9144517,0.5112942,2.5583036
930,2026-05-11 16:07:08.659718,-0.122751065,1.6476572,-0.3358123,-1.9144517,0.5112942,2.5583036
931,2026-05-11 16:07:08.662388,-0.122751065,1.6476572,-0.3358123,-1.9144517,0.5112942,2.5583036
932,2026-05-11 16:07:08.665193,-0.122751065,1.6476572,-0.3358123,-1.9144517,0.5112942,2.5583036
933,2026-05-11 16:07:08.668151,-0.122751065,1.6476572,-0.3358123,-1.9144517,0.5112942,2.5583036
934,2026-05-11 16:07:08.670985,-0.0043295207,1.7894946,-0.28776067,-1.9144517,0.5112942,2.5583036
935,2026-05-11 16:07:08.673673,-0.0043295207,1.7894946,-0.28776067,-1.9144517,0.5112942,2.5583036
936,2026-05-11 16:07:08.676275,-0.0043295207,1.7894946,-0.28776067,-1.9144517,0.5112942,2.5583036
937,2026-05-11 16:07:08.679017,-0.0043295207,1.7894946,-0.28776067,-1.9144517,0.5112942,2.5583036
938,2026-05-11 16:07:08.681635,-0.0043295207,1.7894946,-0.28776067,-1.9144517,0.5112942,2.5583036
939,2026-05-11 16:07:08.684553,-0.0043295207,1.7894946,-0.28776067,-1.9144517,0.5112942,2.5583036
940,2026-05-11 16:07:08.687794,-0.0043295207,1.7894946,-0.28776067,-1.3614659,0.5143485,2.3203716
941,2026-05-11 16:07:08.690651,-0.0043295207,1.7894946,-0.28776067,-1.3614659,0.5143485,2.3203716
942,2026-05-11 16:07:08.693243,-0.0043295207,1.7894946,-0.28776067,-1.3614659,0.5143485,2.3203716
943,2026-05-11 16:07:08.696132,-0.0043295207,1.7894946,-0.28776067,-1.3614659,0.5143485,2.3203716
944,2026-05-11 16:07:08.698910,-0.0043295207,1.7894946,-0.28776067,-1.3614659,0.5143485,2.3203716
945,2026-05-11 16:07:08.701779,-0.01243975,1.8784631,-0.400999,-0.6072,0.10903945,1.8176296
946,2026-05-11 16:07:08.705241,-0.01243975,1.8784631,-0.400999,0.016035212,-0.2845105,1.3607023
947,2026-05-11 16:07:08.707947,-0.01243975,1.8784631,-0.400999,0.016035212,-0.2845105,1.3607023
948,2026-05-11 16:07:08.710547,-0.01243975,1.8784631,-0.400999,0.016035212,-0.2845105,1.3607023
949,2026-05-11 16:07:08.713300,-0.20708527,1.8890736,-0.6285733,0.016035212,-0.2845105,1.3607023
950,2026-05-11 16:07:08.716306,-0.20708527,1.8890736,-0.6285733,0.28038713,-0.45937067,1.1812607
951,2026-05-11 16:07:08.719204,-0.20708527,1.8890736,-0.6285733,0.28038713,-0.45937067,1.1812607
952,2026-05-11 16:07:08.721987,-0.3319096,1.9215755,-0.88901526,0.6638578,-0.6817256,0.8350528
953,2026-05-11 16:07:08.724666,-0.3319096,1.9215755,-0.88901526,0.6638578,-0.6817256,0.8350528
954,2026-05-11 16:07:08.727241,-0.3319096,1.9215755,-0.88901526,0.6638578,-0.6817256,0.8350528
955,2026-05-11 16:07:08.729960,-0.3319096,1.9215755,-0.88901526,0.6638578,-0.6817256,0.8350528
956,2026-05-11 16:07:08.732822,-0.3319096,1.9215755,-0.88901526,0.8381071,-0.6372852,0.49571714
957,2026-05-11 16:07:08.735799,-0.32154313,1.9132215,-0.9323105,0.8381071,-0.6372852,0.49571714
958,2026-05-11 16:07:08.738615,-0.32154313,1.9132215,-0.9323105,0.8381071,-0.6372852,0.49571714
959,2026-05-11 16:07:08.741306,-0.26775953,1.8727922,-0.99207014,0.8381071,-0.6372852,0.49571714
960,2026-05-11 16:07:08.743922,-0.26775953,1.8727922,-0.99207014,0.8381071,-0.6372852,0.49571714
961,2026-05-11 16:07:08.746620,-0.26775953,1.8727922,-0.99207014,0.8381071,-0.6372852,0.49571714
962,2026-05-11 16:07:08.749651,-0.26775953,1.8727922,-0.99207014,0.8381071,-0.6372852,0.49571714
963,2026-05-11 16:07:08.752867,-0.26775953,1.8727922,-0.99207014,0.8381071,-0.6372852,0.49571714
964,2026-05-11 16:07:08.755698,-0.26775953,1.8727922,-0.99207014,0.8381071,-0.6372852,0.49571714
965,2026-05-11 16:07:08.758407,-0.26775953,1.8727922,-0.99207014,0.8381071,-0.6372852,0.49571714
966,2026-05-11 16:07:08.760992,-0.26775953,1.8727922,-0.99207014,0.8381071,-0.6372852,0.49571714
967,2026-05-11 16:07:08.763739,-0.26775953,1.8727922,-0.99207014,0.8381071,-0.6372852,0.49571714
968,2026-05-11 16:07:08.766668,-0.26775953,1.8727922,-0.99207014,0.8381071,-0.6372852,0.49571714
969,2026-05-11 16:07:08.769766,-0.26775953,1.8727922,-0.99207014,0.8381071,-0.6372852,0.49571714
970,2026-05-11 16:07:08.772372,-0.26775953,1.8727922,-0.99207014,0.8381071,-0.6372852,0.49571714
971,2026-05-11 16:07:08.774955,-0.26775953,1.8727922,-0.99207014,0.8381071,-0.6372852,0.49571714
972,2026-05-11 16:07:08.777565,-0.26775953,1.8727922,-0.99207014,1.0086912,-0.47800204,0.024281893
973,2026-05-11 16:07:08.780349,-0.26775953,1.8727922,-0.99207014,1.0086912,-0.47800204,0.024281893
974,2026-05-11 16:07:08.783018,-0.26775953,1.8727922,-0.99207014,1.0086912,-0.47800204,0.024281893
975,2026-05-11 16:07:08.786378,-0.26775953,1.8727922,-0.99207014,1.0086912,-0.47800204,0.024281893
976,2026-05-11 16:07:08.789109,-0.26775953,1.8727922,-0.99207014,1.0086912,-0.47800204,0.024281893
977,2026-05-11 16:07:08.791869,-0.26775953,1.8727922,-0.99207014,1.0086912,-0.47800204,0.024281893
978,2026-05-11 16:07:08.794509,-0.26775953,1.8727922,-0.99207014,1.0086912,-0.47800204,0.024281893
979,2026-05-11 16:07:08.797244,-0.26775953,1.8727922,-0.99207014,1.0086912,-0.47800204,0.024281893
980,2026-05-11 16:07:08.799862,-0.26775953,1.8727922,-0.99207014,1.0086912,-0.47800204,0.024281893
981,2026-05-11 16:07:08.803105,-0.26775953,1.8727922,-0.99207014,1.0086912,-0.47800204,0.024281893
982,2026-05-11 16:07:08.805866,-0.22226907,1.8183378,-1.0159129,1.1769847,-0.33429602,-0.4998405
983,2026-05-11 16:07:08.808449,-0.22226907,1.8183378,-1.0159129,1.1769847,-0.33429602,-0.4998405
984,2026-05-11 16:07:08.811260,-0.22226907,1.8183378,-1.0159129,1.1769847,-0.33429602,-0.4998405
985,2026-05-11 16:07:08.813863,-0.22226907,1.8183378,-1.0159129,1.1769847,-0.33429602,-0.4998405
986,2026-05-11 16:07:08.816414,-0.22226907,1.8183378,-1.0159129,1.1769847,-0.33429602,-0.4998405
987,2026-05-11 16:07:08.819764,-0.22226907,1.8183378,-1.0159129,1.1769847,-0.33429602,-0.4998405
988,2026-05-11 16:07:08.822491,-0.22226907,1.8183378,-1.0159129,1.1769847,-0.33429602,-0.4998405
989,2026-05-11 16:07:08.825308,-0.22226907,1.8183378,-1.0159129,1.1769847,-0.33429602,-0.4998405
990,2026-05-11 16:07:08.828104,-0.22226907,1.8183378,-1.0159129,1.1769847,-0.33429602,-0.4998405
991,2026-05-11 16:07:08.830801,-0.22226907,1.8183378,-1.0159129,1.1769847,-0.33429602,-0.4998405
992,2026-05-11 16:07:08.833419,-0.22226907,1.8183378,-1.0159129,1.1769847,-0.33429602,-0.4998405
993,2026-05-11 16:07:08.836641,-0.22226907,1.8183378,-1.0159129,1.1769847,-0.33429602,-0.4998405
994,2026-05-11 16:07:08.839225,-0.22226907,1.8183378,-1.0159129,1.1769847,-0.33429602,-0.4998405
995,2026-05-11 16:07:08.842074,-0.22226907,1.8183378,-1.0159129,1.1769847,-0.33429602,-0.4998405
996,2026-05-11 16:07:08.844640,-0.22226907,1.8183378,-1.0159129,1.1769847,-0.33429602,-0.4998405
997,2026-05-11 16:07:08.847433,-0.22226907,1.8183378,-1.0159129,1.1769847,-0.33429602,-0.4998405
998,2026-05-11 16:07:08.850223,-0.22226907,1.8183378,-1.0159129,1.1769847,-0.33429602,-0.4998405
999,2026-05-11 16:07:08.853396,-0.32989728,1.6902206,-1.0687819,1.1769847,-0.33429602,-0.4998405
1000,2026-05-11 16:07:08.856007,-0.32989728,1.6902206,-1.0687819,1.1769847,-0.33429602,-0.4998405
1001,2026-05-11 16:07:08.858843,-0.32989728,1.6902206,-1.0687819,1.3400856,-0.40469822,-0.8355109
1002,2026-05-11 16:07:08.861416,-0.32989728,1.6902206,-1.0687819,1.3400856,-0.40469822,-0.8355109
1003,2026-05-11 16:07:08.864031,-0.32989728,1.6902206,-1.0687819,1.3400856,-0.40469822,-0.8355109
1004,2026-05-11 16:07:08.866614,-0.32989728,1.6902206,-1.0687819,1.3400856,-0.40469822,-0.8355109
1005,2026-05-11 16:07:08.869608,-0.32989728,1.6902206,-1.0687819,1.3400856,-0.40469822,-0.8355109
1006,2026-05-11 16:07:08.872266,-0.32989728,1.6902206,-1.0687819,1.3400856,-0.40469822,-0.8355109
1007,2026-05-11 16:07:08.874854,-0.32989728,1.6902206,-1.0687819,1.3400856,-0.40469822,-0.8355109
1008,2026-05-11 16:07:08.877377,-0.32989728,1.6902206,-1.0687819,1.3400856,-0.40469822,-0.8355109
1009,2026-05-11 16:07:08.880103,-0.32989728,1.6902206,-1.0687819,1.3400856,-0.40469822,-0.8355109
1010,2026-05-11 16:07:08.882610,-0.32989728,1.6902206,-1.0687819,1.3400856,-0.40469822,-0.8355109
1011,2026-05-11 16:07:08.885632,-0.32989728,1.6902206,-1.0687819,1.3400856,-0.40469822,-0.8355109
1012,2026-05-11 16:07:08.888309,-0.32989728,1.6902206,-1.0687819,1.3400856,-0.40469822,-0.8355109
1013,2026-05-11 16:07:08.890829,-0.32989728,1.6902206,-1.0687819,1.3400856,-0.40469822,-0.8355109
1014,2026-05-11 16:07:08.893404,-0.19366984,1.5786287,-1.0796971,1.3562735,-0.42577308,-1.3755158
1015,2026-05-11 16:07:08.896130,-0.19366984,1.5786287,-1.0796971,1.4337007,-0.4804455,-1.6119207
1016,2026-05-11 16:07:08.898671,-0.19366984,1.5786287,-1.0796971,1.4337007,-0.4804455,-1.6119207
1017,2026-05-11 16:07:08.901642,-0.19366984,1.5786287,-1.0796971,1.4337007,-0.4804455,-1.6119207
1018,2026-05-11 16:07:08.904414,-0.19366984,1.5786287,-1.0796971,1.4337007,-0.4804455,-1.6119207
1019,2026-05-11 16:07:08.906930,-0.19366984,1.5786287,-1.0796971,1.4337007,-0.4804455,-1.6119207
1020,2026-05-11 16:07:08.909583,-0.19366984,1.5786287,-1.0796971,1.4337007,-0.4804455,-1.6119207
1021,2026-05-11 16:07:08.912198,-0.19366984,1.5786287,-1.0796971,1.4337007,-0.4804455,-1.6119207
1022,2026-05-11 16:07:08.914821,-0.19366984,1.5786287,-1.0796971,1.4337007,-0.4804455,-1.6119207
1023,2026-05-11 16:07:08.917946,-0.19366984,1.5786287,-1.0796971,1.4337007,-0.4804455,-1.6119207
1024,2026-05-11 16:07:08.920896,-0.19366984,1.5786287,-1.0796971,1.4337007,-0.4804455,-1.6119207
1025,2026-05-11 16:07:08.923663,-0.18049833,1.4093505,-1.0494515,1.4337007,-0.4804455,-1.6119207
1026,2026-05-11 16:07:08.926305,-0.18049833,1.4093505,-1.0494515,1.4337007,-0.4804455,-1.6119207
1027,2026-05-11 16:07:08.929229,-0.24598998,1.2369624,-0.960117,1.6348281,-0.6397286,-2.009594
1028,2026-05-11 16:07:08.931854,-0.24598998,1.2369624,-0.960117,1.6348281,-0.6397286,-2.009594
1029,2026-05-11 16:07:08.934966,-0.24598998,1.2369624,-0.960117,1.6348281,-0.6397286,-2.009594
1030,2026-05-11 16:07:08.937892,-0.24598998,1.2369624,-0.960117,1.6348281,-0.6397286,-2.009594
1031,2026-05-11 16:07:08.940668,-0.24598998,1.2369624,-0.960117,1.6348281,-0.6397286,-2.009594
1032,2026-05-11 16:07:08.943294,-0.24598998,1.2369624,-0.960117,1.6348281,-0.6397286,-2.009594
1033,2026-05-11 16:07:08.946061,-0.24598998,1.2369624,-0.960117,1.6348281,-0.6397286,-2.009594
1034,2026-05-11 16:07:08.948859,-0.21239044,1.1574455,-0.9124923,1.6574302,-0.62690043,-2.154827
1035,2026-05-11 16:07:08.952028,-0.21239044,1.1574455,-0.9124923,1.6574302,-0.62690043,-2.154827
1036,2026-05-11 16:07:08.954840,-0.21239044,1.1574455,-0.9124923,1.6574302,-0.62690043,-2.154827
1037,2026-05-11 16:07:08.957507,-0.21239044,1.1574455,-0.9124923,1.6574302,-0.62690043,-2.154827
1038,2026-05-11 16:07:08.960106,-0.21239044,1.1574455,-0.9124923,1.6574302,-0.62690043,-2.154827
1039,2026-05-11 16:07:08.962717,-0.21239044,1.1574455,-0.9124923,1.6574302,-0.62690043,-2.154827
1040,2026-05-11 16:07:08.965306,-0.21239044,1.1574455,-0.9124923,1.6574302,-0.62690043,-2.154827
1041,2026-05-11 16:07:08.968713,-0.21239044,1.1574455,-0.9124923,1.6574302,-0.62690043,-2.154827
1042,2026-05-11 16:07:08.971525,-0.21239044,1.1574455,-0.9124923,1.6574302,-0.62690043,-2.154827
1043,2026-05-11 16:07:08.974264,-0.18659624,1.0446341,-0.8615746,1.6574302,-0.62690043,-2.154827
1044,2026-05-11 16:07:08.976949,-0.18659624,1.0446341,-0.8615746,1.6574302,-0.62690043,-2.154827
1045,2026-05-11 16:07:08.979569,-0.18659624,1.0446341,-0.8615746,1.6574302,-0.62690043,-2.154827
1046,2026-05-11 16:07:08.982539,-0.18659624,1.0446341,-0.8615746,1.6574302,-0.62690043,-2.154827
1047,2026-05-11 16:07:08.985676,-0.18659624,1.0446341,-0.8615746,1.6574302,-0.62690043,-2.154827
1048,2026-05-11 16:07:08.988559,-0.18659624,1.0446341,-0.8615746,1.6574302,-0.62690043,-2.154827
1049,2026-05-11 16:07:08.991287,-0.18659624,1.0446341,-0.8615746,1.6574302,-0.62690043,-2.154827
1050,2026-05-11 16:07:08.993970,-0.18659624,1.0446341,-0.8615746,1.6574302,-0.62690043,-2.154827
1051,2026-05-11 16:07:08.996685,-0.18659624,1.0446341,-0.8615746,1.6574302,-0.62690043,-2.154827
1052,2026-05-11 16:07:08.999326,-0.18659624,1.0446341,-0.8615746,1.6574302,-0.62690043,-2.154827
1053,2026-05-11 16:07:09.002387,-0.18659624,1.0446341,-0.8615746,1.6574302,-0.62690043,-2.154827
1054,2026-05-11 16:07:09.005131,-0.18659624,1.0446341,-0.8615746,1.6574302,-0.62690043,-2.154827
1055,2026-05-11 16:07:09.007862,-0.18659624,1.0446341,-0.8615746,1.6168076,-0.44715336,-2.4032967
1056,2026-05-11 16:07:09.010512,-0.18659624,1.0446341,-0.8615746,1.6168076,-0.44715336,-2.4032967
1057,2026-05-11 16:07:09.013072,-0.18659624,1.0446341,-0.8615746,1.6168076,-0.44715336,-2.4032967
1058,2026-05-11 16:07:09.015875,-0.18659624,1.0446341,-0.8615746,1.6168076,-0.44715336,-2.4032967
1059,2026-05-11 16:07:09.018751,-0.18659624,1.0446341,-0.8615746,1.6168076,-0.44715336,-2.4032967
1060,2026-05-11 16:07:09.021698,-0.27166218,0.9945702,-0.7899851,1.6168076,-0.44715336,-2.4032967
1061,2026-05-11 16:07:09.024410,-0.27166218,0.9945702,-0.7899851,1.6168076,-0.44715336,-2.4032967
1062,2026-05-11 16:07:09.027054,-0.27166218,0.9945702,-0.7899851,1.6168076,-0.44715336,-2.4032967
1063,2026-05-11 16:07:09.029621,-0.27166218,0.9945702,-0.7899851,1.6168076,-0.44715336,-2.4032967
1064,2026-05-11 16:07:09.032427,-0.27166218,0.9945702,-0.7899851,1.6168076,-0.44715336,-2.4032967
1065,2026-05-11 16:07:09.035494,-0.27166218,0.9945702,-0.7899851,1.5674802,-0.18600847,-2.620459
1066,2026-05-11 16:07:09.038304,-0.27166218,0.9945702,-0.7899851,1.5674802,-0.18600847,-2.620459
1067,2026-05-11 16:07:09.040909,-0.27166218,0.9945702,-0.7899851,1.5674802,-0.18600847,-2.620459
1068,2026-05-11 16:07:09.043697,-0.27166218,0.9945702,-0.7899851,1.5674802,-0.18600847,-2.620459
1069,2026-05-11 16:07:09.046280,-0.27166218,0.9945702,-0.7899851,1.5674802,-0.18600847,-2.620459
1070,2026-05-11 16:07:09.049132,-0.36977768,0.9526166,-0.7563856,1.5674802,-0.18600847,-2.620459
1071,2026-05-11 16:07:09.052327,-0.36977768,0.9526166,-0.7563856,1.5674802,-0.18600847,-2.620459
1072,2026-05-11 16:07:09.055014,-0.36977768,0.9526166,-0.7563856,1.5674802,-0.18600847,-2.620459
1073,2026-05-11 16:07:09.057613,-0.36977768,0.9526166,-0.7563856,1.5674802,-0.18600847,-2.620459
1074,2026-05-11 16:07:09.060205,-0.36977768,0.9526166,-0.7563856,1.5674802,-0.18600847,-2.620459
1075,2026-05-11 16:07:09.062784,-0.36977768,0.9526166,-0.7563856,1.5674802,-0.18600847,-2.620459
1076,2026-05-11 16:07:09.065497,-0.36977768,0.9526166,-0.7563856,1.5674802,-0.18600847,-2.620459
1077,2026-05-11 16:07:09.068613,-0.36977768,0.9526166,-0.7563856,1.5674802,-0.18600847,-2.620459
1078,2026-05-11 16:07:09.071318,-0.36977768,0.9526166,-0.7563856,1.5674802,-0.18600847,-2.620459
1079,2026-05-11 16:07:09.074051,-0.36977768,0.9526166,-0.7563856,1.5674802,-0.18600847,-2.620459
1080,2026-05-11 16:07:09.076762,-0.36977768,0.9526166,-0.7563856,1.5674802,-0.18600847,-2.620459
1081,2026-05-11 16:07:09.079388,-0.36977768,0.9526166,-0.7563856,1.5674802,-0.18600847,-2.620459
1082,2026-05-11 16:07:09.082195,-0.36977768,0.9526166,-0.7563856,1.5674802,-0.18600847,-2.620459
1083,2026-05-11 16:07:09.085246,-0.36977768,0.9526166,-0.7563856,1.5625933,-0.06872234,-2.6633725
1084,2026-05-11 16:07:09.087969,-0.36977768,0.9526166,-0.7563856,1.5625933,-0.06872234,-2.6633725
1085,2026-05-11 16:07:09.090583,-0.36977768,0.9526166,-0.7563856,1.5625933,-0.06872234,-2.6633725
1086,2026-05-11 16:07:09.093132,-0.36977768,0.9526166,-0.7563856,1.5625933,-0.06872234,-2.6633725
1087,2026-05-11 16:07:09.095757,-0.36977768,0.9526166,-0.7563856,1.5625933,-0.06872234,-2.6633725
1088,2026-05-11 16:07:09.098312,-0.36977768,0.9526166,-0.7563856,1.5625933,-0.06872234,-2.6633725
1089,2026-05-11 16:07:09.101383,-0.36977768,0.9526166,-0.7563856,1.5625933,-0.06872234,-2.6633725
1090,2026-05-11 16:07:09.104107,-0.36977768,0.9526166,-0.7563856,1.5625933,-0.06872234,-2.6633725
1091,2026-05-11 16:07:09.106679,-0.36977768,0.9526166,-0.7563856,1.5625933,-0.06872234,-2.6633725
1092,2026-05-11 16:07:09.109573,-0.55716664,0.924932,-0.7396773,1.5625933,-0.06872234,-2.6633725
1093,2026-05-11 16:07:09.112345,-0.55716664,0.924932,-0.7396773,1.5625933,-0.06872234,-2.6633725
1094,2026-05-11 16:07:09.115011,-0.55716664,0.924932,-0.7396773,1.6572775,-0.41279218,-2.589916
1095,2026-05-11 16:07:09.118133,-0.55716664,0.924932,-0.7396773,1.6572775,-0.41279218,-2.589916
1096,2026-05-11 16:07:09.120924,-0.55716664,0.924932,-0.7396773,1.6572775,-0.41279218,-2.589916
1097,2026-05-11 16:07:09.123543,-0.55716664,0.924932,-0.7396773,1.6572775,-0.41279218,-2.589916
1098,2026-05-11 16:07:09.126405,-0.55716664,0.924932,-0.7396773,1.6572775,-0.41279218,-2.589916
1099,2026-05-11 16:07:09.129187,-0.55716664,0.924932,-0.7396773,1.6572775,-0.41279218,-2.589916
1100,2026-05-11 16:07:09.131824,-0.55716664,0.924932,-0.7396773,1.6572775,-0.41279218,-2.589916
1101,2026-05-11 16:07:09.134673,-0.55716664,0.924932,-0.7396773,1.6572775,-0.41279218,-2.589916
1102,2026-05-11 16:07:09.137372,-0.55716664,0.924932,-0.7396773,1.6572775,-0.41279218,-2.589916
1103,2026-05-11 16:07:09.139934,-0.55716664,0.924932,-0.7396773,1.6572775,-0.41279218,-2.589916
1104,2026-05-11 16:07:09.142833,-0.55716664,0.924932,-0.7396773,1.6572775,-0.41279218,-2.589916
1105,2026-05-11 16:07:09.145476,-0.55716664,0.924932,-0.7396773,1.6572775,-0.41279218,-2.589916
1106,2026-05-11 16:07:09.148331,-0.55716664,0.924932,-0.7396773,1.6572775,-0.41279218,-2.589916
1107,2026-05-11 16:07:09.151665,-0.55716664,0.924932,-0.7396773,1.6572775,-0.41279218,-2.589916
1108,2026-05-11 16:07:09.154479,-0.55716664,0.924932,-0.7396773,1.6572775,-0.41279218,-2.589916
1109,2026-05-11 16:07:09.157155,-0.55716664,0.924932,-0.7396773,1.6572775,-0.41279218,-2.589916
1110,2026-05-11 16:07:09.159756,-0.55716664,0.924932,-0.7396773,1.6572775,-0.41279218,-2.589916
1111,2026-05-11 16:07:09.162614,-0.55716664,0.924932,-0.7396773,1.6572775,-0.41279218,-2.589916
1112,2026-05-11 16:07:09.165223,-0.55716664,0.924932,-0.7396773,1.6572775,-0.41279218,-2.589916
1113,2026-05-11 16:07:09.168427,-0.55716664,0.924932,-0.7396773,1.6572775,-0.41279218,-2.589916
1114,2026-05-11 16:07:09.171386,-0.6719294,0.9088335,-0.7032117,1.6572775,-0.41279218,-2.589916
1115,2026-05-11 16:07:09.174101,-0.6719294,0.9088335,-0.7032117,1.6572775,-0.41279218,-2.589916
1116,2026-05-11 16:07:09.176671,-0.6719294,0.9088335,-0.7032117,1.6572775,-0.41279218,-2.589916
1117,2026-05-11 16:07:09.179556,-0.6719294,0.9088335,-0.7032117,1.6572775,-0.41279218,-2.589916
1118,2026-05-11 16:07:09.182319,-0.6719294,0.9088335,-0.7032117,1.6572775,-0.41279218,-2.589916
1119,2026-05-11 16:07:09.185332,-0.6719294,0.9088335,-0.7032117,1.7638733,-0.9430232,-2.5404358
1120,2026-05-11 16:07:09.188029,-0.6719294,0.9088335,-0.7032117,1.7638733,-0.9430232,-2.5404358
1121,2026-05-11 16:07:09.190838,-0.7941927,0.83139,-0.5807046,1.7638733,-0.9430232,-2.5404358
1122,2026-05-11 16:07:09.193449,-0.7941927,0.83139,-0.5807046,1.7638733,-0.9430232,-2.5404358
1123,2026-05-11 16:07:09.196133,-0.7941927,0.83139,-0.5807046,1.7638733,-0.9430232,-2.5404358
1124,2026-05-11 16:07:09.198707,-0.7941927,0.83139,-0.5807046,1.7638733,-0.9430232,-2.5404358
1125,2026-05-11 16:07:09.201838,-0.7941927,0.83139,-0.5807046,1.7638733,-0.9430232,-2.5404358
1126,2026-05-11 16:07:09.204638,-0.7941927,0.83139,-0.5807046,1.7638733,-0.9430232,-2.5404358
1127,2026-05-11 16:07:09.207197,-0.7941927,0.83139,-0.5807046,1.7638733,-0.9430232,-2.5404358
1128,2026-05-11 16:07:09.209978,-0.7941927,0.83139,-0.5807046,1.7638733,-0.9430232,-2.5404358
1129,2026-05-11 16:07:09.212656,-0.7941927,0.83139,-0.5807046,1.7638733,-0.9430232,-2.5404358
1130,2026-05-11 16:07:09.215230,-0.7941927,0.83139,-0.5807046,1.7638733,-0.9430232,-2.5404358
1131,2026-05-11 16:07:09.218334,-0.7941927,0.83139,-0.5807046,1.7638733,-0.9430232,-2.5404358
1132,2026-05-11 16:07:09.221057,-0.7941927,0.83139,-0.5807046,1.7638733,-0.9430232,-2.5404358
1133,2026-05-11 16:07:09.223657,-0.7941927,0.83139,-0.5807046,1.7638733,-0.9430232,-2.5404358
1134,2026-05-11 16:07:09.226419,-0.90426004,0.7876069,-0.45179462,1.9425515,-1.5648841,-2.209805
1135,2026-05-11 16:07:09.229159,-0.90426004,0.7876069,-0.45179462,1.9425515,-1.5648841,-2.209805
1136,2026-05-11 16:07:09.231886,-0.90426004,0.7876069,-0.45179462,1.9425515,-1.5648841,-2.209805
1137,2026-05-11 16:07:09.234796,-0.90426004,0.7876069,-0.45179462,1.9425515,-1.5648841,-2.209805
1138,2026-05-11 16:07:09.237659,-0.90426004,0.7876069,-0.45179462,1.9425515,-1.5648841,-2.209805
1139,2026-05-11 16:07:09.240243,-0.90426004,0.7876069,-0.45179462,1.9425515,-1.5648841,-2.209805
1140,2026-05-11 16:07:09.242821,-0.90426004,0.7876069,-0.45179462,1.9425515,-1.5648841,-2.209805
1141,2026-05-11 16:07:09.245502,-0.90426004,0.7876069,-0.45179462,1.9425515,-1.5648841,-2.209805
1142,2026-05-11 16:07:09.248179,-0.90426004,0.7876069,-0.45179462,1.9425515,-1.5648841,-2.209805
1143,2026-05-11 16:07:09.251296,-0.90426004,0.7876069,-0.45179462,1.9425515,-1.5648841,-2.209805
1144,2026-05-11 16:07:09.253931,-0.90426004,0.7876069,-0.45179462,1.9425515,-1.5648841,-2.209805
1145,2026-05-11 16:07:09.256869,-0.90426004,0.7876069,-0.45179462,1.9425515,-1.5648841,-2.209805
1146,2026-05-11 16:07:09.259523,-0.90426004,0.7876069,-0.45179462,1.9425515,-1.5648841,-2.209805
1147,2026-05-11 16:07:09.262287,-0.90426004,0.7876069,-0.45179462,1.9425515,-1.5648841,-2.209805
1148,2026-05-11 16:07:09.264942,-1.0059733,0.79876614,-0.34892282,2.0523546,-1.4535538,-1.9207131
1149,2026-05-11 16:07:09.267918,-1.0059733,0.79876614,-0.34892282,2.0523546,-1.4535538,-1.9207131
1150,2026-05-11 16:07:09.270657,-1.0059733,0.79876614,-0.34892282,2.0523546,-1.4535538,-1.9207131
1151,2026-05-11 16:07:09.273361,-1.0059733,0.79876614,-0.34892282,2.0523546,-1.4535538,-1.9207131
1152,2026-05-11 16:07:09.276086,-1.0059733,0.79876614,-0.34892282,2.0523546,-1.4535538,-1.9207131
1153,2026-05-11 16:07:09.278798,-1.0059733,0.79876614,-0.34892282,2.0523546,-1.4535538,-1.9207131
1154,2026-05-11 16:07:09.281543,-1.0059733,0.79876614,-0.34892282,2.0523546,-1.4535538,-1.9207131
1155,2026-05-11 16:07:09.284649,-1.0059733,0.79876614,-0.34892282,2.0523546,-1.4535538,-1.9207131
1156,2026-05-11 16:07:09.287462,-1.0059733,0.79876614,-0.34892282,2.0523546,-1.4535538,-1.9207131
1157,2026-05-11 16:07:09.290168,-1.0059733,0.79876614,-0.34892282,2.0523546,-1.4535538,-1.9207131
1158,2026-05-11 16:07:09.292831,-1.0059733,0.79876614,-0.34892282,2.0523546,-1.4535538,-1.9207131
1159,2026-05-11 16:07:09.295402,-1.0059733,0.79876614,-0.34892282,2.0523546,-1.4535538,-1.9207131
1160,2026-05-11 16:07:09.298003,-1.0059733,0.79876614,-0.34892282,2.0523546,-1.4535538,-1.9207131
1161,2026-05-11 16:07:09.301041,-1.0059733,0.79876614,-0.34892282,2.0523546,-1.4535538,-1.9207131
1162,2026-05-11 16:07:09.303911,-1.0059733,0.79876614,-0.34892282,2.1229095,-1.1583532,-1.3122913
1163,2026-05-11 16:07:09.306534,-1.0059733,0.79876614,-0.34892282,2.1229095,-1.1583532,-1.3122913
1164,2026-05-11 16:07:09.309095,-1.0059733,0.79876614,-0.34892282,2.1229095,-1.1583532,-1.3122913
1165,2026-05-11 16:07:09.336500,-0.8482812,0.8012663,-0.39258388,2.0459404,-0.9025534,-0.8211556
1166,2026-05-11 16:07:09.339846,-0.8482812,0.8012663,-0.39258388,1.920255,-0.67088276,-0.44241914
1167,2026-05-11 16:07:09.349388,-0.8482812,0.8012663,-0.39258388,1.920255,-0.67088276,-0.44241914
1168,2026-05-11 16:07:09.352734,-0.8482812,0.8012663,-0.39258388,1.920255,-0.67088276,-0.44241914
1169,2026-05-11 16:07:09.355515,-0.8482812,0.8012663,-0.39258388,1.920255,-0.67088276,-0.44241914
1170,2026-05-11 16:07:09.358249,-0.8482812,0.8012663,-0.39258388,1.920255,-0.67088276,-0.44241914
1171,2026-05-11 16:07:09.360958,-0.8482812,0.8012663,-0.39258388,1.920255,-0.67088276,-0.44241914
1172,2026-05-11 16:07:09.363612,-0.8482812,0.8012663,-0.39258388,1.920255,-0.67088276,-0.44241914
1173,2026-05-11 16:07:09.366230,-0.8482812,0.8012663,-0.39258388,1.920255,-0.67088276,-0.44241914
1174,2026-05-11 16:07:09.369520,-0.8482812,0.8012663,-0.39258388,1.7406605,-0.3846924,-0.26450464
1175,2026-05-11 16:07:09.372372,-0.8482812,0.8012663,-0.39258388,1.7406605,-0.3846924,-0.26450464
1176,2026-05-11 16:07:09.375078,-0.8482812,0.8012663,-0.39258388,1.7406605,-0.3846924,-0.26450464
1177,2026-05-11 16:07:09.377659,-0.8482812,0.8012663,-0.39258388,1.7406605,-0.3846924,-0.26450464
1178,2026-05-11 16:07:09.380555,-0.68467414,0.77358174,-0.43874508,1.7406605,-0.3846924,-0.26450464
1179,2026-05-11 16:07:09.383203,-0.68467414,0.77358174,-0.43874508,1.7406605,-0.3846924,-0.26450464
1180,2026-05-11 16:07:09.386503,-0.68467414,0.77358174,-0.43874508,1.7406605,-0.3846924,-0.26450464
1181,2026-05-11 16:07:09.389155,-0.68467414,0.77358174,-0.43874508,1.7406605,-0.3846924,-0.26450464
1182,2026-05-11 16:07:09.391927,-0.68467414,0.77358174,-0.43874508,1.7406605,-0.3846924,-0.26450464
1183,2026-05-11 16:07:09.394544,-0.68467414,0.77358174,-0.43874508,1.7406605,-0.3846924,-0.26450464
1184,2026-05-11 16:07:09.397388,-0.47832057,0.6502209,-0.60381573,1.041678,0.5870415,-0.31581733
1185,2026-05-11 16:07:09.400068,-0.47832057,0.6502209,-0.60381573,1.041678,0.5870415,-0.31581733
1186,2026-05-11 16:07:09.403256,-0.47832057,0.6502209,-0.60381573,1.041678,0.5870415,-0.31581733
1187,2026-05-11 16:07:09.405918,-0.47832057,0.6502209,-0.60381573,1.041678,0.5870415,-0.31581733
1188,2026-05-11 16:07:09.408494,-0.47832057,0.6502209,-0.60381573,1.041678,0.5870415,-0.31581733
1189,2026-05-11 16:07:09.411312,-0.47832057,0.6502209,-0.60381573,1.041678,0.5870415,-0.31581733
1190,2026-05-11 16:07:09.413935,-0.47832057,0.6502209,-0.60381573,1.041678,0.5870415,-0.31581733
1191,2026-05-11 16:07:09.416582,-0.47832057,0.6502209,-0.60381573,1.041678,0.5870415,-0.31581733
1192,2026-05-11 16:07:09.419789,-0.47832057,0.6502209,-0.60381573,1.041678,0.5870415,-0.31581733
1193,2026-05-11 16:07:09.422585,-0.47832057,0.6502209,-0.60381573,1.041678,0.5870415,-0.31581733
1194,2026-05-11 16:07:09.425312,-0.47832057,0.6502209,-0.60381573,1.041678,0.5870415,-0.31581733
1195,2026-05-11 16:07:09.427908,-0.47832057,0.6502209,-0.60381573,1.041678,0.5870415,-0.31581733
1196,2026-05-11 16:07:09.430797,-0.47832057,0.6502209,-0.60381573,0.68294734,1.079857,-0.2759584
1197,2026-05-11 16:07:09.433660,-0.47832057,0.6502209,-0.60381573,0.68294734,1.079857,-0.2759584
1198,2026-05-11 16:07:09.436866,-0.47832057,0.6502209,-0.60381573,0.68294734,1.079857,-0.2759584
1199,2026-05-11 16:07:09.439638,-0.47832057,0.6502209,-0.60381573,0.68294734,1.079857,-0.2759584
1200,2026-05-11 16:07:09.442274,-0.47832057,0.6502209,-0.60381573,0.68294734,1.079857,-0.2759584
1201,2026-05-11 16:07:09.444905,-0.47832057,0.6502209,-0.60381573,0.68294734,1.079857,-0.2759584
1202,2026-05-11 16:07:09.447619,-0.47832057,0.6502209,-0.60381573,0.68294734,1.079857,-0.2759584
1203,2026-05-11 16:07:09.450790,-0.47832057,0.6502209,-0.60381573,0.68294734,1.079857,-0.2759584
1204,2026-05-11 16:07:09.453561,-0.47832057,0.6502209,-0.60381573,0.68294734,1.079857,-0.2759584
1205,2026-05-11 16:07:09.456171,-0.47832057,0.6502209,-0.60381573,0.68294734,1.079857,-0.2759584
1206,2026-05-11 16:07:09.458951,-0.55552024,0.6008277,-0.553142,0.68294734,1.079857,-0.2759584
1207,2026-05-11 16:07:09.461563,-0.55552024,0.6008277,-0.553142,0.68294734,1.079857,-0.2759584
1208,2026-05-11 16:07:09.464347,-0.55552024,0.6008277,-0.553142,0.68294734,1.079857,-0.2759584
1209,2026-05-11 16:07:09.467380,-0.55552024,0.6008277,-0.553142,0.68294734,1.079857,-0.2759584
1210,2026-05-11 16:07:09.470339,-0.55552024,0.6008277,-0.553142,0.68294734,1.079857,-0.2759584
1211,2026-05-11 16:07:09.473021,-0.55552024,0.6008277,-0.553142,0.68294734,1.079857,-0.2759584
1212,2026-05-11 16:07:09.475774,-0.55552024,0.6008277,-0.553142,0.68294734,1.079857,-0.2759584
1213,2026-05-11 16:07:09.478357,-0.55552024,0.6008277,-0.553142,0.68294734,1.079857,-0.2759584
1214,2026-05-11 16:07:09.481001,-0.55552024,0.6008277,-0.553142,0.68294734,1.079857,-0.2759584
1215,2026-05-11 16:07:09.483970,-0.55552024,0.6008277,-0.553142,0.4914411,1.3293955,0.25809056
1216,2026-05-11 16:07:09.486920,-0.55552024,0.6008277,-0.553142,0.4914411,1.3293955,0.25809056
1217,2026-05-11 16:07:09.489548,-0.55552024,0.6008277,-0.553142,0.4914411,1.3293955,0.25809056
1218,2026-05-11 16:07:09.492190,-0.55552024,0.6008277,-0.553142,0.4914411,1.3293955,0.25809056
1219,2026-05-11 16:07:09.494908,-0.55552024,0.6008277,-0.553142,0.4914411,1.3293955,0.25809056
1220,2026-05-11 16:07:09.497494,-0.55552024,0.6008277,-0.553142,0.4914411,1.3293955,0.25809056
1221,2026-05-11 16:07:09.500447,-0.55552024,0.6008277,-0.553142,0.4914411,1.3293955,0.25809056
1222,2026-05-11 16:07:09.503258,-0.55552024,0.6008277,-0.553142,0.4914411,1.3293955,0.25809056
1223,2026-05-11 16:07:09.505879,-0.55552024,0.6008277,-0.553142,0.4914411,1.3293955,0.25809056
1224,2026-05-11 16:07:09.508574,-0.55552024,0.6008277,-0.553142,0.4914411,1.3293955,0.25809056
1225,2026-05-11 16:07:09.511150,-0.55552024,0.6008277,-0.553142,0.4914411,1.3293955,0.25809056
1226,2026-05-11 16:07:09.514043,-0.6886987,0.59930325,-0.34623972,0.4914411,1.3293955,0.25809056
1227,2026-05-11 16:07:09.516734,-0.6886987,0.59930325,-0.34623972,0.4914411,1.3293955,0.25809056
1228,2026-05-11 16:07:09.520026,-0.61131614,0.5574716,-0.24818522,0.74128497,0.7845037,0.82619524
1229,2026-05-11 16:07:09.522730,-0.61131614,0.5574716,-0.24818522,0.74128497,0.7845037,0.82619524
1230,2026-05-11 16:07:09.525315,-0.61131614,0.5574716,-0.24818522,0.74128497,0.7845037,0.82619524
1231,2026-05-11 16:07:09.527820,-0.61131614,0.5574716,-0.24818522,0.74128497,0.7845037,0.82619524
1232,2026-05-11 16:07:09.530433,-0.61131614,0.5574716,-0.24818522,0.74128497,0.7845037,0.82619524
1233,2026-05-11 16:07:09.532958,-0.61131614,0.5574716,-0.24818522,0.74128497,0.7845037,0.82619524
1234,2026-05-11 16:07:09.536455,-0.61131614,0.5574716,-0.24818522,0.74128497,0.7845037,0.82619524
1235,2026-05-11 16:07:09.539189,-0.61131614,0.5574716,-0.24818522,0.74128497,0.7845037,0.82619524
1236,2026-05-11 16:07:09.542006,-0.54844666,0.4911262,-0.19556019,0.74128497,0.7845037,0.82619524
1237,2026-05-11 16:07:09.544707,-0.54844666,0.4911262,-0.19556019,0.74128497,0.7845037,0.82619524
1238,2026-05-11 16:07:09.547289,-0.54844666,0.4911262,-0.19556019,0.74128497,0.7845037,0.82619524
