id,timestamp,acc_x,acc_y,acc_z,gyro_x,gyro_y,gyro_z
1,2026-05-11 16:08:22.832934,0.124031626,0.33794656,0.8856005,-0.7435757,-0.7298313,0.07925977
2,2026-05-11 16:08:22.842969,0.14775252,0.4601488,0.930786,-0.7435757,-0.7298313,0.07925977
3,2026-05-11 16:08:22.846022,0.14775252,0.4601488,0.930786,-0.7435757,-0.7298313,0.07925977
4,2026-05-11 16:08:22.848921,0.14769155,0.4927117,0.95426303,-0.43982297,-1.0923798,0.07620544
5,2026-05-11 16:08:22.852045,0.14769155,0.4927117,0.95426303,-0.43982297,-1.0923798,0.07620544
6,2026-05-11 16:08:22.854781,0.14769155,0.4927117,0.95426303,-0.43982297,-1.0923798,0.07620544
7,2026-05-11 16:08:22.857552,0.14769155,0.4927117,0.95426303,-0.43982297,-1.0923798,0.07620544
8,2026-05-11 16:08:22.860248,0.14769155,0.4927117,0.95426303,-0.43982297,-1.0923798,0.07620544
9,2026-05-11 16:08:22.863111,0.14769155,0.4927117,0.95426303,-0.43982297,-1.0923798,0.07620544
10,2026-05-11 16:08:22.865912,0.14769155,0.4927117,0.95426303,-0.3173445,-1.2421945,0.05009095
11,2026-05-11 16:08:22.869025,0.14769155,0.4927117,0.95426303,-0.3173445,-1.2421945,0.05009095
12,2026-05-11 16:08:22.871629,0.14769155,0.4927117,0.95426303,-0.3173445,-1.2421945,0.05009095
13,2026-05-11 16:08:22.874370,0.14769155,0.4927117,0.95426303,-0.3173445,-1.2421945,0.05009095
14,2026-05-11 16:08:22.876950,0.14769155,0.4927117,0.95426303,-0.3173445,-1.2421945,0.05009095
15,2026-05-11 16:08:22.879713,0.14769155,0.4927117,0.95426303,-0.3173445,-1.2421945,0.05009095
16,2026-05-11 16:08:22.882383,0.14769155,0.4927117,0.95426303,-0.3173445,-1.2421945,0.05009095
17,2026-05-11 16:08:22.885524,0.14769155,0.4927117,0.95426303,-0.3173445,-1.2421945,0.05009095
18,2026-05-11 16:08:22.888182,0.14769155,0.4927117,0.95426303,-0.3173445,-1.2421945,0.05009095
19,2026-05-11 16:08:22.890968,0.14769155,0.4927117,0.95426303,-0.3173445,-1.2421945,0.05009095
20,2026-05-11 16:08:22.893559,0.14769155,0.4927117,0.95426303,-0.3173445,-1.2421945,0.05009095
21,2026-05-11 16:08:22.896167,0.14769155,0.4927117,0.95426303,-0.3173445,-1.2421945,0.05009095
22,2026-05-11 16:08:22.898748,0.14769155,0.4927117,0.95426303,-0.3173445,-1.2421945,0.05009095
23,2026-05-11 16:08:22.901816,0.14769155,0.4927117,0.95426303,-0.3173445,-1.2421945,0.05009095
24,2026-05-11 16:08:22.904484,0.14769155,0.4927117,0.95426303,-0.3173445,-1.2421945,0.05009095
25,2026-05-11 16:08:22.907030,0.14769155,0.4927117,0.95426303,-0.3173445,-1.2421945,0.05009095
26,2026-05-11 16:08:22.909800,0.14769155,0.4927117,0.95426303,-0.3173445,-1.2421945,0.05009095
27,2026-05-11 16:08:22.912395,0.14769155,0.4927117,0.95426303,-0.3173445,-1.2421945,0.05009095
28,2026-05-11 16:08:22.915165,0.14769155,0.4927117,0.95426303,-0.3173445,-1.2421945,0.05009095
29,2026-05-11 16:08:22.918055,0.14769155,0.4927117,0.95426303,-0.3173445,-1.2421945,0.05009095
30,2026-05-11 16:08:22.920937,0.14769155,0.4927117,0.95426303,-0.3173445,-1.2421945,0.05009095
31,2026-05-11 16:08:22.923541,0.14769155,0.4927117,0.95426303,-0.3173445,-1.2421945,0.05009095
32,2026-05-11 16:08:22.926131,0.14769155,0.4927117,0.95426303,-0.3173445,-1.2421945,0.05009095
33,2026-05-11 16:08:22.928959,0.14769155,0.4927117,0.95426303,-0.3173445,-1.2421945,0.05009095
34,2026-05-11 16:08:22.931524,0.14769155,0.4927117,0.95426303,-0.3173445,-1.2421945,0.05009095
35,2026-05-11 16:08:22.934814,0.14769155,0.4927117,0.95426303,-0.3173445,-1.2421945,0.05009095
36,2026-05-11 16:08:22.937567,0.14769155,0.4927117,0.95426303,-0.3173445,-1.2421945,0.05009095
37,2026-05-11 16:08:22.940343,0.14769155,0.4927117,0.95426303,-0.3173445,-1.2421945,0.05009095
38,2026-05-11 16:08:22.942934,0.14769155,0.4927117,0.95426303,-0.3173445,-1.2421945,0.05009095
39,2026-05-11 16:08:22.945704,0.14769155,0.4927117,0.95426303,-0.3173445,-1.2421945,0.05009095
40,2026-05-11 16:08:22.948294,0.14769155,0.4927117,0.95426303,-0.3173445,-1.2421945,0.05009095
41,2026-05-11 16:08:22.951380,0.14769155,0.4927117,0.95426303,-0.3173445,-1.2421945,0.05009095
42,2026-05-11 16:08:22.954215,0.14769155,0.4927117,0.95426303,-0.3173445,-1.2421945,0.05009095
43,2026-05-11 16:08:22.956854,0.14769155,0.4927117,0.95426303,-0.3173445,-1.2421945,0.05009095
44,2026-05-11 16:08:22.959448,0.14769155,0.4927117,0.95426303,-0.3173445,-1.2421945,0.05009095
45,2026-05-11 16:08:22.962059,0.14769155,0.4927117,0.95426303,-0.3173445,-1.2421945,0.05009095
46,2026-05-11 16:08:22.964594,0.14769155,0.4927117,0.95426303,-0.3173445,-1.2421945,0.05009095
47,2026-05-11 16:08:22.968018,0.14769155,0.4927117,0.95426303,-0.3173445,-1.2421945,0.05009095
48,2026-05-11 16:08:22.970787,0.14769155,0.4927117,0.95426303,-0.3173445,-1.2421945,0.05009095
49,2026-05-11 16:08:22.973371,0.14769155,0.4927117,0.95426303,-0.3173445,-1.2421945,0.05009095
50,2026-05-11 16:08:22.975962,0.14769155,0.4927117,0.95426303,-0.3173445,-1.2421945,0.05009095
51,2026-05-11 16:08:22.978516,0.14769155,0.4927117,0.95426303,-0.3173445,-1.2421945,0.05009095
52,2026-05-11 16:08:22.981326,0.14769155,0.4927117,0.95426303,-0.3173445,-1.2421945,0.05009095
53,2026-05-11 16:08:22.984397,0.14769155,0.4927117,0.95426303,-0.3173445,-1.2421945,0.05009095
54,2026-05-11 16:08:22.987183,0.14769155,0.4927117,0.95426303,-0.3173445,-1.2421945,0.05009095
55,2026-05-11 16:08:22.989858,0.14769155,0.4927117,0.95426303,-0.3173445,-1.2421945,0.05009095
56,2026-05-11 16:08:22.992458,0.14769155,0.4927117,0.95426303,-0.3173445,-1.2421945,0.05009095
57,2026-05-11 16:08:22.995024,0.14769155,0.4927117,0.95426303,-0.3173445,-1.2421945,0.05009095
58,2026-05-11 16:08:22.997552,0.14769155,0.4927117,0.95426303,-0.3173445,-1.2421945,0.05009095
59,2026-05-11 16:08:23.000728,0.14769155,0.4927117,0.95426303,-0.3173445,-1.2421945,0.05009095
60,2026-05-11 16:08:23.003474,0.14769155,0.4927117,0.95426303,-0.3173445,-1.2421945,0.05009095
61,2026-05-11 16:08:23.006167,0.14769155,0.4927117,0.95426303,-0.3173445,-1.2421945,0.05009095
62,2026-05-11 16:08:23.008838,0.14769155,0.4927117,0.95426303,-0.3173445,-1.2421945,0.05009095
63,2026-05-11 16:08:23.011396,0.14769155,0.4927117,0.95426303,-0.3173445,-1.2421945,0.05009095
64,2026-05-11 16:08:23.014114,0.14769155,0.4927117,0.95426303,-0.3173445,-1.2421945,0.05009095
65,2026-05-11 16:08:23.017044,0.14769155,0.4927117,0.95426303,-0.3173445,-1.2421945,0.05009095
66,2026-05-11 16:08:23.020478,0.14769155,0.4927117,0.95426303,-0.3173445,-1.2421945,0.05009095
67,2026-05-11 16:08:23.023220,0.14769155,0.4927117,0.95426303,-0.3173445,-1.2421945,0.05009095
68,2026-05-11 16:08:23.025837,0.14769155,0.4927117,0.95426303,-0.3173445,-1.2421945,0.05009095
69,2026-05-11 16:08:23.028418,0.14769155,0.4927117,0.95426303,-0.3173445,-1.2421945,0.05009095
70,2026-05-11 16:08:23.031265,0.14769155,0.4927117,0.95426303,-0.3173445,-1.2421945,0.05009095
71,2026-05-11 16:08:23.035874,0.14769155,0.4927117,0.95426303,-0.3173445,-1.2421945,0.05009095
72,2026-05-11 16:08:23.039364,0.14769155,0.4927117,0.95426303,-0.3173445,-1.2421945,0.05009095
73,2026-05-11 16:08:23.043346,0.14769155,0.4927117,0.95426303,-0.3173445,-1.2421945,0.05009095
74,2026-05-11 16:08:23.046699,0.14769155,0.4927117,0.95426303,-0.3173445,-1.2421945,0.05009095
75,2026-05-11 16:08:23.052106,0.14769155,0.4927117,0.95426303,-0.3173445,-1.2421945,0.05009095
76,2026-05-11 16:08:23.055184,0.14769155,0.4927117,0.95426303,-0.3173445,-1.2421945,0.05009095
77,2026-05-11 16:08:23.058042,0.14769155,0.4927117,0.95426303,-0.3173445,-1.2421945,0.05009095
78,2026-05-11 16:08:23.060693,0.14769155,0.4927117,0.95426303,-0.3173445,-1.2421945,0.05009095
79,2026-05-11 16:08:23.063285,0.14769155,0.4927117,0.95426303,-0.3173445,-1.2421945,0.05009095
80,2026-05-11 16:08:23.066177,0.14769155,0.4927117,0.95426303,-0.3173445,-1.2421945,0.05009095
81,2026-05-11 16:08:23.069245,0.14769155,0.4927117,0.95426303,0.14172074,-1.7589865,-0.10247265
82,2026-05-11 16:08:23.072114,0.14769155,0.4927117,0.95426303,0.14172074,-1.7589865,-0.10247265
83,2026-05-11 16:08:23.074721,0.14769155,0.4927117,0.95426303,0.14172074,-1.7589865,-0.10247265
84,2026-05-11 16:08:23.077477,0.14769155,0.4927117,0.95426303,0.14172074,-1.7589865,-0.10247265
85,2026-05-11 16:08:23.080060,0.14769155,0.4927117,0.95426303,0.14172074,-1.7589865,-0.10247265
86,2026-05-11 16:08:23.082625,0.14769155,0.4927117,0.95426303,0.14172074,-1.7589865,-0.10247265
87,2026-05-11 16:08:23.085881,0.14769155,0.4927117,0.95426303,0.14172074,-1.7589865,-0.10247265
88,2026-05-11 16:08:23.089038,0.14769155,0.4927117,0.95426303,0.14172074,-1.7589865,-0.10247265
89,2026-05-11 16:08:23.092061,0.14769155,0.4927117,0.95426303,0.14172074,-1.7589865,-0.10247265
90,2026-05-11 16:08:23.094806,0.14769155,0.4927117,0.95426303,0.14172074,-1.7589865,-0.10247265
91,2026-05-11 16:08:23.097484,0.13531277,0.6260731,1.0007901,0.14172074,-1.7589865,-0.10247265
92,2026-05-11 16:08:23.100489,0.13531277,0.6260731,1.0007901,0.14172074,-1.7589865,-0.10247265
93,2026-05-11 16:08:23.103352,0.08165111,0.72345686,0.97895956,0.14172074,-1.7589865,-0.10247265
94,2026-05-11 16:08:23.106072,0.08165111,0.72345686,0.97895956,0.14172074,-1.7589865,-0.10247265
95,2026-05-11 16:08:23.108662,0.08165111,0.72345686,0.97895956,0.14172074,-1.7589865,-0.10247265
96,2026-05-11 16:08:23.111418,0.08165111,0.72345686,0.97895956,0.14172074,-1.7589865,-0.10247265
97,2026-05-11 16:08:23.114053,0.08165111,0.72345686,0.97895956,0.14172074,-1.7589865,-0.10247265
98,2026-05-11 16:08:23.117770,0.08165111,0.72345686,0.97895956,0.14172074,-1.7589865,-0.10247265
99,2026-05-11 16:08:23.121029,0.08165111,0.72345686,0.97895956,0.14172074,-1.7589865,-0.10247265
100,2026-05-11 16:08:23.123644,0.08165111,0.72345686,0.97895956,0.14172074,-1.7589865,-0.10247265
101,2026-05-11 16:08:23.126222,0.08165111,0.72345686,0.97895956,0.14172074,-1.7589865,-0.10247265
102,2026-05-11 16:08:23.128785,0.08165111,0.72345686,0.97895956,0.14172074,-1.7589865,-0.10247265
103,2026-05-11 16:08:23.131678,0.08165111,0.72345686,0.97895956,0.14172074,-1.7589865,-0.10247265
104,2026-05-11 16:08:23.134915,0.08165111,0.72345686,0.97895956,0.14172074,-1.7589865,-0.10247265
105,2026-05-11 16:08:23.137667,0.08165111,0.72345686,0.97895956,0.14172074,-1.7589865,-0.10247265
106,2026-05-11 16:08:23.140311,0.08165111,0.72345686,0.97895956,0.49831334,-2.1572707,-0.22327125
107,2026-05-11 16:08:23.143040,0.08165111,0.72345686,0.97895956,0.49831334,-2.1572707,-0.22327125
108,2026-05-11 16:08:23.145600,0.08165111,0.72345686,0.97895956,0.49831334,-2.1572707,-0.22327125
109,2026-05-11 16:08:23.148169,0.08165111,0.72345686,0.97895956,0.49831334,-2.1572707,-0.22327125
110,2026-05-11 16:08:23.151049,0.08165111,0.72345686,0.97895956,0.49831334,-2.1572707,-0.22327125
111,2026-05-11 16:08:23.153982,0.08165111,0.72345686,0.97895956,0.49831334,-2.1572707,-0.22327125
112,2026-05-11 16:08:23.156578,0.08165111,0.72345686,0.97895956,0.49831334,-2.1572707,-0.22327125
113,2026-05-11 16:08:23.159155,0.08165111,0.72345686,0.97895956,0.49831334,-2.1572707,-0.22327125
114,2026-05-11 16:08:23.161770,0.08165111,0.72345686,0.97895956,0.49831334,-2.1572707,-0.22327125
115,2026-05-11 16:08:23.164297,0.08165111,0.72345686,0.97895956,0.49831334,-2.1572707,-0.22327125
116,2026-05-11 16:08:23.167544,0.08165111,0.72345686,0.97895956,0.49831334,-2.1572707,-0.22327125
117,2026-05-11 16:08:23.170338,0.08165111,0.72345686,0.97895956,0.49831334,-2.1572707,-0.22327125
118,2026-05-11 16:08:23.173149,0.08165111,0.72345686,0.97895956,0.49831334,-2.1572707,-0.22327125
119,2026-05-11 16:08:23.175790,0.08165111,0.72345686,0.97895956,0.49831334,-2.1572707,-0.22327125
120,2026-05-11 16:08:23.178365,0.08165111,0.72345686,0.97895956,0.49831334,-2.1572707,-0.22327125
121,2026-05-11 16:08:23.181183,0.08165111,0.72345686,0.97895956,0.49831334,-2.1572707,-0.22327125
122,2026-05-11 16:08:23.184332,0.08165111,0.72345686,0.97895956,0.49831334,-2.1572707,-0.22327125
123,2026-05-11 16:08:23.187181,0.08165111,0.72345686,0.97895956,0.49831334,-2.1572707,-0.22327125
124,2026-05-11 16:08:23.189892,0.08165111,0.72345686,0.97895956,0.49831334,-2.1572707,-0.22327125
125,2026-05-11 16:08:23.192530,0.08165111,0.72345686,0.97895956,0.49831334,-2.1572707,-0.22327125
126,2026-05-11 16:08:23.195131,0.08165111,0.72345686,0.97895956,0.49831334,-2.1572707,-0.22327125
127,2026-05-11 16:08:23.197705,0.08165111,0.72345686,0.97895956,0.49831334,-2.1572707,-0.22327125
128,2026-05-11 16:08:23.200779,0.08165111,0.72345686,0.97895956,0.49831334,-2.1572707,-0.22327125
129,2026-05-11 16:08:23.203512,0.08165111,0.72345686,0.97895956,0.49831334,-2.1572707,-0.22327125
130,2026-05-11 16:08:23.206132,-0.08293167,0.80193704,0.8129743,0.88422745,-2.7472138,-0.38133264
131,2026-05-11 16:08:23.208819,-0.08293167,0.80193704,0.8129743,0.88422745,-2.7472138,-0.38133264
132,2026-05-11 16:08:23.211384,-0.08293167,0.80193704,0.8129743,0.88422745,-2.7472138,-0.38133264
133,2026-05-11 16:08:23.213948,-0.08293167,0.80193704,0.8129743,0.88422745,-2.7472138,-0.38133264
134,2026-05-11 16:08:23.216789,-0.08293167,0.80193704,0.8129743,0.88422745,-2.7472138,-0.38133264
135,2026-05-11 16:08:23.219494,-0.08293167,0.80193704,0.8129743,0.88422745,-2.7472138,-0.38133264
136,2026-05-11 16:08:23.221991,-0.08293167,0.80193704,0.8129743,0.88422745,-2.7472138,-0.38133264
137,2026-05-11 16:08:23.224773,-0.08293167,0.80193704,0.8129743,0.88422745,-2.7472138,-0.38133264
138,2026-05-11 16:08:23.227317,-0.08293167,0.80193704,0.8129743,0.88422745,-2.7472138,-0.38133264
139,2026-05-11 16:08:23.230025,-0.08293167,0.80193704,0.8129743,0.88422745,-2.7472138,-0.38133264
140,2026-05-11 16:08:23.232539,-0.08293167,0.80193704,0.8129743,0.88422745,-2.7472138,-0.38133264
141,2026-05-11 16:08:23.235587,-0.08293167,0.80193704,0.8129743,0.88422745,-2.7472138,-0.38133264
142,2026-05-11 16:08:23.238266,-0.08293167,0.80193704,0.8129743,0.88422745,-2.7472138,-0.38133264
143,2026-05-11 16:08:23.240936,-0.35282546,0.90669924,0.5950347,0.88422745,-2.7472138,-0.38133264
144,2026-05-11 16:08:23.243594,-0.35282546,0.90669924,0.5950347,0.88422745,-2.7472138,-0.38133264
145,2026-05-11 16:08:23.246121,-0.35282546,0.90669924,0.5950347,0.88422745,-2.7472138,-0.38133264
146,2026-05-11 16:08:23.248838,-0.35282546,0.90669924,0.5950347,0.88422745,-2.7472138,-0.38133264
147,2026-05-11 16:08:23.252137,-0.35282546,0.90669924,0.5950347,0.9671524,-3.1784847,-0.2648101
148,2026-05-11 16:08:23.254898,-0.35282546,0.90669924,0.5950347,0.9671524,-3.1784847,-0.2648101
149,2026-05-11 16:08:23.257574,-0.35282546,0.90669924,0.5950347,0.9671524,-3.1784847,-0.2648101
150,2026-05-11 16:08:23.260344,-0.35282546,0.90669924,0.5950347,0.9671524,-3.1784847,-0.2648101
151,2026-05-11 16:08:23.263083,-0.35282546,0.90669924,0.5950347,0.9671524,-3.1784847,-0.2648101
152,2026-05-11 16:08:23.265910,-0.35282546,0.90669924,0.5950347,0.9671524,-3.1784847,-0.2648101
153,2026-05-11 16:08:23.269053,-0.35282546,0.90669924,0.5950347,0.9671524,-3.1784847,-0.2648101
154,2026-05-11 16:08:23.271790,-0.35282546,0.90669924,0.5950347,0.9671524,-3.1784847,-0.2648101
155,2026-05-11 16:08:23.274434,-0.35282546,0.90669924,0.5950347,0.9671524,-3.1784847,-0.2648101
156,2026-05-11 16:08:23.277190,-0.35282546,0.90669924,0.5950347,0.9671524,-3.1784847,-0.2648101
157,2026-05-11 16:08:23.279781,-0.35282546,0.90669924,0.5950347,0.9671524,-3.1784847,-0.2648101
158,2026-05-11 16:08:23.282487,-0.35282546,0.90669924,0.5950347,0.9671524,-3.1784847,-0.2648101
159,2026-05-11 16:08:23.285540,-0.35282546,0.90669924,0.5950347,0.9671524,-3.1784847,-0.2648101
160,2026-05-11 16:08:23.288329,-0.35282546,0.90669924,0.5950347,0.9671524,-3.1784847,-0.2648101
161,2026-05-11 16:08:23.291041,-0.35282546,0.90669924,0.5950347,0.9671524,-3.1784847,-0.2648101
162,2026-05-11 16:08:23.293701,-0.35282546,0.90669924,0.5950347,0.9671524,-3.1784847,-0.2648101
163,2026-05-11 16:08:23.296254,-0.35282546,0.90669924,0.5950347,0.9671524,-3.1784847,-0.2648101
164,2026-05-11 16:08:23.299050,-0.35282546,0.90669924,0.5950347,0.9671524,-3.1784847,-0.2648101
165,2026-05-11 16:08:23.301991,-0.35282546,0.90669924,0.5950347,0.9671524,-3.1784847,-0.2648101
166,2026-05-11 16:08:23.304907,-0.35282546,0.90669924,0.5950347,0.9671524,-3.1784847,-0.2648101
167,2026-05-11 16:08:23.307565,-0.35282546,0.90669924,0.5950347,0.9671524,-3.1784847,-0.2648101
168,2026-05-11 16:08:23.310206,-0.35282546,0.90669924,0.5950347,0.9671524,-3.1784847,-0.2648101
169,2026-05-11 16:08:23.312767,-0.35282546,0.90669924,0.5950347,0.9671524,-3.1784847,-0.2648101
170,2026-05-11 16:08:23.315530,-0.35282546,0.90669924,0.5950347,0.9671524,-3.1784847,-0.2648101
171,2026-05-11 16:08:23.318534,-0.52015233,0.99487513,0.33123884,0.9671524,-3.1784847,-0.2648101
172,2026-05-11 16:08:23.321249,-0.52015233,0.99487513,0.33123884,0.9671524,-3.1784847,-0.2648101
173,2026-05-11 16:08:23.323865,-0.52015233,0.99487513,0.33123884,0.8043568,-3.259577,-0.01985312
174,2026-05-11 16:08:23.326538,-0.52015233,0.99487513,0.33123884,0.8043568,-3.259577,-0.01985312
175,2026-05-11 16:08:23.329124,-0.52015233,0.99487513,0.33123884,0.8043568,-3.259577,-0.01985312
176,2026-05-11 16:08:23.331761,-0.52015233,0.99487513,0.33123884,0.8043568,-3.259577,-0.01985312
177,2026-05-11 16:08:23.334822,-0.52015233,0.99487513,0.33123884,0.8043568,-3.259577,-0.01985312
178,2026-05-11 16:08:23.337549,-0.52015233,0.99487513,0.33123884,0.8043568,-3.259577,-0.01985312
179,2026-05-11 16:08:23.340125,-0.52015233,0.99487513,0.33123884,0.8043568,-3.259577,-0.01985312
180,2026-05-11 16:08:23.342944,-0.52015233,0.99487513,0.33123884,0.8043568,-3.259577,-0.01985312
181,2026-05-11 16:08:23.345541,-0.52015233,0.99487513,0.33123884,0.8043568,-3.259577,-0.01985312
182,2026-05-11 16:08:23.348084,-0.52015233,0.99487513,0.33123884,0.8043568,-3.259577,-0.01985312
183,2026-05-11 16:08:23.351018,-0.52015233,0.99487513,0.33123884,0.8043568,-3.259577,-0.01985312
184,2026-05-11 16:08:23.353866,-0.52015233,0.99487513,0.33123884,0.8043568,-3.259577,-0.01985312
185,2026-05-11 16:08:23.356470,-0.52015233,0.99487513,0.33123884,0.8043568,-3.259577,-0.01985312
186,2026-05-11 16:08:23.359062,-0.52015233,0.99487513,0.33123884,0.8043568,-3.259577,-0.01985312
187,2026-05-11 16:08:23.361753,-0.52015233,0.99487513,0.33123884,0.8043568,-3.259577,-0.01985312
188,2026-05-11 16:08:23.364306,-0.52015233,0.99487513,0.33123884,0.8043568,-3.259577,-0.01985312
189,2026-05-11 16:08:23.366982,-0.52015233,0.99487513,0.33123884,0.8043568,-3.259577,-0.01985312
190,2026-05-11 16:08:23.370408,-0.52015233,0.99487513,0.33123884,0.8043568,-3.259577,-0.01985312
191,2026-05-11 16:08:23.373321,-0.52015233,0.99487513,0.33123884,0.8043568,-3.259577,-0.01985312
192,2026-05-11 16:08:23.375898,-0.52015233,0.99487513,0.33123884,0.8043568,-3.259577,-0.01985312
193,2026-05-11 16:08:23.378462,-0.52015233,0.99487513,0.33123884,0.8043568,-3.259577,-0.01985312
194,2026-05-11 16:08:23.381164,-0.52015233,0.99487513,0.33123884,0.8043568,-3.259577,-0.01985312
195,2026-05-11 16:08:23.383846,-0.52015233,0.99487513,0.33123884,0.8043568,-3.259577,-0.01985312
196,2026-05-11 16:08:23.387332,-0.52015233,0.99487513,0.33123884,0.8043568,-3.259577,-0.01985312
197,2026-05-11 16:08:23.390253,-0.52015233,0.99487513,0.33123884,0.8043568,-3.259577,-0.01985312
198,2026-05-11 16:08:23.393024,-0.52015233,0.99487513,0.33123884,0.8043568,-3.259577,-0.01985312
199,2026-05-11 16:08:23.395798,-0.52015233,0.99487513,0.33123884,0.8043568,-3.259577,-0.01985312
200,2026-05-11 16:08:23.398571,-0.52015233,0.99487513,0.33123884,0.036957346,-3.1317534,0.5119051
201,2026-05-11 16:08:23.401601,-0.52015233,0.99487513,0.33123884,0.036957346,-3.1317534,0.5119051
202,2026-05-11 16:08:23.404429,-0.52015233,0.99487513,0.33123884,0.036957346,-3.1317534,0.5119051
203,2026-05-11 16:08:23.407073,-0.52015233,0.99487513,0.33123884,0.036957346,-3.1317534,0.5119051
204,2026-05-11 16:08:23.409625,-0.52015233,0.99487513,0.33123884,0.036957346,-3.1317534,0.5119051
205,2026-05-11 16:08:23.412289,-0.52015233,0.99487513,0.33123884,0.036957346,-3.1317534,0.5119051
206,2026-05-11 16:08:23.414839,-0.52015233,0.99487513,0.33123884,0.036957346,-3.1317534,0.5119051
207,2026-05-11 16:08:23.417774,-0.52015233,0.99487513,0.33123884,0.036957346,-3.1317534,0.5119051
208,2026-05-11 16:08:23.420582,-0.52015233,0.99487513,0.33123884,0.036957346,-3.1317534,0.5119051
209,2026-05-11 16:08:23.423152,-0.52015233,0.99487513,0.33123884,0.036957346,-3.1317534,0.5119051
210,2026-05-11 16:08:23.425751,-0.52015233,0.99487513,0.33123884,0.036957346,-3.1317534,0.5119051
211,2026-05-11 16:08:23.428655,-0.52015233,0.99487513,0.33123884,0.036957346,-3.1317534,0.5119051
212,2026-05-11 16:08:23.431248,-0.52015233,0.99487513,0.33123884,0.036957346,-3.1317534,0.5119051
213,2026-05-11 16:08:23.434356,-0.52015233,0.99487513,0.33123884,0.036957346,-3.1317534,0.5119051
214,2026-05-11 16:08:23.437186,-0.52015233,0.99487513,0.33123884,0.036957346,-3.1317534,0.5119051
215,2026-05-11 16:08:23.439890,-0.52015233,0.99487513,0.33123884,0.036957346,-3.1317534,0.5119051
216,2026-05-11 16:08:23.442442,-0.52015233,0.99487513,0.33123884,0.036957346,-3.1317534,0.5119051
217,2026-05-11 16:08:23.445159,-0.52015233,0.99487513,0.33123884,0.036957346,-3.1317534,0.5119051
218,2026-05-11 16:08:23.447709,-0.52015233,0.99487513,0.33123884,0.036957346,-3.1317534,0.5119051
219,2026-05-11 16:08:23.450686,-0.52015233,0.99487513,0.33123884,0.036957346,-3.1317534,0.5119051
220,2026-05-11 16:08:23.453533,-0.52015233,0.99487513,0.33123884,0.036957346,-3.1317534,0.5119051
221,2026-05-11 16:08:23.456164,-0.5547275,1.2020823,0.047807667,0.036957346,-3.1317534,0.5119051
222,2026-05-11 16:08:23.458928,-0.5547275,1.2020823,0.047807667,0.036957346,-3.1317534,0.5119051
223,2026-05-11 16:08:23.461511,-0.5547275,1.2020823,0.047807667,0.036957346,-3.1317534,0.5119051
224,2026-05-11 16:08:23.464216,-0.5547275,1.2020823,0.047807667,0.036957346,-3.1317534,0.5119051
225,2026-05-11 16:08:23.467238,-0.5547275,1.2020823,0.047807667,0.036957346,-3.1317534,0.5119051
226,2026-05-11 16:08:23.470142,-0.5547275,1.2020823,0.047807667,0.036957346,-3.1317534,0.5119051
227,2026-05-11 16:08:23.472773,-0.5547275,1.2020823,0.047807667,0.036957346,-3.1317534,0.5119051
228,2026-05-11 16:08:23.475444,-0.4923458,1.3047103,0.047868647,0.036957346,-3.1317534,0.5119051
229,2026-05-11 16:08:23.478140,-0.4923458,1.3047103,0.047868647,0.036957346,-3.1317534,0.5119051
230,2026-05-11 16:08:23.480678,-0.4923458,1.3047103,0.047868647,0.036957346,-3.1317534,0.5119051
231,2026-05-11 16:08:23.483980,-0.4923458,1.3047103,0.047868647,0.036957346,-3.1317534,0.5119051
232,2026-05-11 16:08:23.486835,-0.4923458,1.3047103,0.047868647,0.036957346,-3.1317534,0.5119051
233,2026-05-11 16:08:23.489405,-0.4923458,1.3047103,0.047868647,0.036957346,-3.1317534,0.5119051
234,2026-05-11 16:08:23.492250,-0.4923458,1.3047103,0.047868647,0.036957346,-3.1317534,0.5119051
235,2026-05-11 16:08:23.495085,-0.4923458,1.3047103,0.047868647,0.036957346,-3.1317534,0.5119051
236,2026-05-11 16:08:23.497675,-0.4923458,1.3047103,0.047868647,0.036957346,-3.1317534,0.5119051
237,2026-05-11 16:08:23.500960,-0.4923458,1.3047103,0.047868647,-0.46975538,-2.9970577,0.71944654
238,2026-05-11 16:08:23.503821,-0.4923458,1.3047103,0.047868647,-0.46975538,-2.9970577,0.71944654
239,2026-05-11 16:08:23.506403,-0.4923458,1.3047103,0.047868647,-0.46975538,-2.9970577,0.71944654
240,2026-05-11 16:08:23.509040,-0.4923458,1.3047103,0.047868647,-0.46975538,-2.9970577,0.71944654
241,2026-05-11 16:08:23.511706,-0.4923458,1.3047103,0.047868647,-0.46975538,-2.9970577,0.71944654
242,2026-05-11 16:08:23.514359,-0.4923458,1.3047103,0.047868647,-0.46975538,-2.9970577,0.71944654
243,2026-05-11 16:08:23.517114,-0.4923458,1.3047103,0.047868647,-0.46975538,-2.9970577,0.71944654
244,2026-05-11 16:08:23.520105,-0.4923458,1.3047103,0.047868647,-0.46975538,-2.9970577,0.71944654
245,2026-05-11 16:08:23.522697,-0.4923458,1.3047103,0.047868647,-0.46975538,-2.9970577,0.71944654
246,2026-05-11 16:08:23.525225,-0.4923458,1.3047103,0.047868647,-0.46975538,-2.9970577,0.71944654
247,2026-05-11 16:08:23.527771,-0.4923458,1.3047103,0.047868647,-0.46975538,-2.9970577,0.71944654
248,2026-05-11 16:08:23.530506,-0.4923458,1.3047103,0.047868647,-0.46975538,-2.9970577,0.71944654
249,2026-05-11 16:08:23.533117,-0.4923458,1.3047103,0.047868647,-0.46975538,-2.9970577,0.71944654
250,2026-05-11 16:08:23.536373,-0.4923458,1.3047103,0.047868647,-0.46975538,-2.9970577,0.71944654
251,2026-05-11 16:08:23.539191,-0.4923458,1.3047103,0.047868647,-0.46975538,-2.9970577,0.71944654
252,2026-05-11 16:08:23.541778,-0.4923458,1.3047103,0.047868647,-0.46975538,-2.9970577,0.71944654
253,2026-05-11 16:08:23.544397,-0.4923458,1.3047103,0.047868647,-0.46975538,-2.9970577,0.71944654
254,2026-05-11 16:08:23.547089,-0.4923458,1.3047103,0.047868647,-0.46975538,-2.9970577,0.71944654
255,2026-05-11 16:08:23.549663,-0.4923458,1.3047103,0.047868647,-0.46975538,-2.9970577,0.71944654
256,2026-05-11 16:08:23.552852,-0.4923458,1.3047103,0.047868647,-0.46975538,-2.9970577,0.71944654
257,2026-05-11 16:08:23.555495,-0.4923458,1.3047103,0.047868647,-0.46975538,-2.9970577,0.71944654
258,2026-05-11 16:08:23.558311,-0.4923458,1.3047103,0.047868647,-0.46975538,-2.9970577,0.71944654
259,2026-05-11 16:08:23.561090,-0.4923458,1.3047103,0.047868647,-0.46975538,-2.9970577,0.71944654
260,2026-05-11 16:08:23.563782,-0.4923458,1.3047103,0.047868647,-0.46975538,-2.9970577,0.71944654
261,2026-05-11 16:08:23.566385,-0.4923458,1.3047103,0.047868647,-0.46975538,-2.9970577,0.71944654
262,2026-05-11 16:08:23.569739,-0.4923458,1.3047103,0.047868647,-0.46975538,-2.9970577,0.71944654
263,2026-05-11 16:08:23.572338,-0.4923458,1.3047103,0.047868647,-0.46975538,-2.9970577,0.71944654
264,2026-05-11 16:08:23.575060,-0.4923458,1.3047103,0.047868647,-0.46975538,-2.9970577,0.71944654
265,2026-05-11 16:08:23.577604,-0.4923458,1.3047103,0.047868647,-0.46975538,-2.9970577,0.71944654
266,2026-05-11 16:08:23.580164,-0.4923458,1.3047103,0.047868647,-0.46975538,-2.9970577,0.71944654
267,2026-05-11 16:08:23.582778,-0.4923458,1.3047103,0.047868647,-0.46975538,-2.9970577,0.71944654
268,2026-05-11 16:08:23.586128,-0.4923458,1.3047103,0.047868647,-0.46975538,-2.9970577,0.71944654
269,2026-05-11 16:08:23.588938,-0.4923458,1.3047103,0.047868647,-0.46975538,-2.9970577,0.71944654
270,2026-05-11 16:08:23.591707,-0.4923458,1.3047103,0.047868647,-0.46975538,-2.9970577,0.71944654
271,2026-05-11 16:08:23.594424,-0.4923458,1.3047103,0.047868647,-0.46975538,-2.9970577,0.71944654
272,2026-05-11 16:08:23.596989,-0.4923458,1.3047103,0.047868647,-0.46975538,-2.9970577,0.71944654
273,2026-05-11 16:08:23.599949,-0.4923458,1.3047103,0.047868647,-0.46975538,-2.9970577,0.71944654
274,2026-05-11 16:08:23.602712,-0.4923458,1.3047103,0.047868647,-0.46975538,-2.9970577,0.71944654
275,2026-05-11 16:08:23.613627,-0.4923458,1.3047103,0.047868647,-0.46975538,-2.9970577,0.71944654
276,2026-05-11 16:08:23.632841,-0.4923458,1.3047103,0.047868647,-0.46975538,-2.9970577,0.71944654
277,2026-05-11 16:08:23.642281,-0.25123417,1.5158201,0.39599872,-0.46975538,-2.9970577,0.71944654
278,2026-05-11 16:08:23.645071,-0.25123417,1.5158201,0.39599872,-0.46975538,-2.9970577,0.71944654
279,2026-05-11 16:08:23.647626,-0.25123417,1.5158201,0.39599872,-0.46975538,-2.9970577,0.71944654
280,2026-05-11 16:08:23.650732,-0.25123417,1.5158201,0.39599872,-0.46975538,-2.9970577,0.71944654
281,2026-05-11 16:08:23.653431,-0.25123417,1.5158201,0.39599872,-0.46975538,-2.9970577,0.71944654
282,2026-05-11 16:08:23.656013,-0.25123417,1.5158201,0.39599872,-0.46975538,-2.9970577,0.71944654
283,2026-05-11 16:08:23.658787,-0.25123417,1.5158201,0.39599872,-0.46975538,-2.9970577,0.71944654
284,2026-05-11 16:08:23.661556,-0.25123417,1.5158201,0.39599872,-0.46975538,-2.9970577,0.71944654
285,2026-05-11 16:08:23.664311,-0.25123417,1.5158201,0.39599872,-0.46975538,-2.9970577,0.71944654
286,2026-05-11 16:08:23.667382,-0.25123417,1.5158201,0.39599872,-0.46975538,-2.9970577,0.71944654
287,2026-05-11 16:08:23.670231,-0.25123417,1.5158201,0.39599872,-0.46975538,-2.9970577,0.71944654
288,2026-05-11 16:08:23.672807,-0.25123417,1.5158201,0.39599872,-0.46975538,-2.9970577,0.71944654
289,2026-05-11 16:08:23.675570,-0.25123417,1.5158201,0.39599872,-0.46975538,-2.9970577,0.71944654
290,2026-05-11 16:08:23.678158,-0.25123417,1.5158201,0.39599872,-0.46975538,-2.9970577,0.71944654
291,2026-05-11 16:08:23.680806,-0.25123417,1.5158201,0.39599872,-0.46975538,-2.9970577,0.71944654
292,2026-05-11 16:08:23.683849,-0.25123417,1.5158201,0.39599872,-0.46975538,-2.9970577,0.71944654
293,2026-05-11 16:08:23.686813,-0.25123417,1.5158201,0.39599872,-0.46975538,-2.9970577,0.71944654
294,2026-05-11 16:08:23.689413,-0.25123417,1.5158201,0.39599872,-0.46975538,-2.9970577,0.71944654
295,2026-05-11 16:08:23.692063,-0.25123417,1.5158201,0.39599872,-0.46975538,-2.9970577,0.71944654
296,2026-05-11 16:08:23.694619,-0.25123417,1.5158201,0.39599872,-0.46975538,-2.9970577,0.71944654
297,2026-05-11 16:08:23.697384,-0.25123417,1.5158201,0.39599872,-0.46975538,-2.9970577,0.71944654
298,2026-05-11 16:08:23.700405,-0.2628812,1.6158869,0.7798626,-1.4242324,-2.712089,0.8170323
299,2026-05-11 16:08:23.703318,-0.2628812,1.6158869,0.7798626,-1.4242324,-2.712089,0.8170323
300,2026-05-11 16:08:23.705933,-0.2628812,1.6158869,0.7798626,-1.4242324,-2.712089,0.8170323
301,2026-05-11 16:08:23.708481,-0.2628812,1.6158869,0.7798626,-1.4242324,-2.712089,0.8170323
302,2026-05-11 16:08:23.711071,-0.2628812,1.6158869,0.7798626,-1.4242324,-2.712089,0.8170323
303,2026-05-11 16:08:23.713594,-0.2628812,1.6158869,0.7798626,-1.4242324,-2.712089,0.8170323
304,2026-05-11 16:08:23.716510,-0.2628812,1.6158869,0.7798626,-1.4242324,-2.712089,0.8170323
305,2026-05-11 16:08:23.719537,-0.2628812,1.6158869,0.7798626,-1.4242324,-2.712089,0.8170323
306,2026-05-11 16:08:23.722105,-0.2628812,1.6158869,0.7798626,-1.4242324,-2.712089,0.8170323
307,2026-05-11 16:08:23.724877,-0.2628812,1.6158869,0.7798626,-1.4242324,-2.712089,0.8170323
308,2026-05-11 16:08:23.727471,-0.2628812,1.6158869,0.7798626,-1.4242324,-2.712089,0.8170323
309,2026-05-11 16:08:23.730106,-0.2628812,1.6158869,0.7798626,-1.4242324,-2.712089,0.8170323
310,2026-05-11 16:08:23.732772,-0.2628812,1.6158869,0.7798626,-1.4242324,-2.712089,0.8170323
311,2026-05-11 16:08:23.735837,-0.2628812,1.6158869,0.7798626,-1.4242324,-2.712089,0.8170323
312,2026-05-11 16:08:23.738521,-0.2628812,1.6158869,0.7798626,-1.4242324,-2.712089,0.8170323
313,2026-05-11 16:08:23.741209,-0.2628812,1.6158869,0.7798626,-1.4242324,-2.712089,0.8170323
314,2026-05-11 16:08:23.743754,-0.2628812,1.6158869,0.7798626,-1.4242324,-2.712089,0.8170323
315,2026-05-11 16:08:23.746495,-0.2628812,1.6158869,0.7798626,-1.4242324,-2.712089,0.8170323
316,2026-05-11 16:08:23.749058,-0.2628812,1.6158869,0.7798626,-1.4242324,-2.712089,0.8170323
317,2026-05-11 16:08:23.752201,-0.2628812,1.6158869,0.7798626,-1.4242324,-2.712089,0.8170323
318,2026-05-11 16:08:23.754972,-0.2628812,1.6158869,0.7798626,-1.4242324,-2.712089,0.8170323
319,2026-05-11 16:08:23.757503,-0.2628812,1.6158869,0.7798626,-1.4242324,-2.712089,0.8170323
320,2026-05-11 16:08:23.760069,-0.2628812,1.6158869,0.7798626,-1.4242324,-2.712089,0.8170323
321,2026-05-11 16:08:23.762677,-0.2628812,1.6158869,0.7798626,-1.4242324,-2.712089,0.8170323
322,2026-05-11 16:08:23.765249,-0.2628812,1.6158869,0.7798626,-1.4242324,-2.712089,0.8170323
323,2026-05-11 16:08:23.768443,-0.2628812,1.6158869,0.7798626,-1.4242324,-2.712089,0.8170323
324,2026-05-11 16:08:23.771169,-0.2628812,1.6158869,0.7798626,-1.4242324,-2.712089,0.8170323
325,2026-05-11 16:08:23.773857,-0.2628812,1.6158869,0.7798626,-1.4242324,-2.712089,0.8170323
326,2026-05-11 16:08:23.776465,-0.2628812,1.6158869,0.7798626,-1.4242324,-2.712089,0.8170323
327,2026-05-11 16:08:23.779272,-0.2628812,1.6158869,0.7798626,-1.4242324,-2.712089,0.8170323
328,2026-05-11 16:08:23.781928,-0.2628812,1.6158869,0.7798626,-1.4242324,-2.712089,0.8170323
329,2026-05-11 16:08:23.785076,-0.2628812,1.6158869,0.7798626,-1.645671,-2.7333164,0.57925296
330,2026-05-11 16:08:23.787798,-0.2628812,1.6158869,0.7798626,-1.645671,-2.7333164,0.57925296
331,2026-05-11 16:08:23.790586,-0.2628812,1.6158869,0.7798626,-1.645671,-2.7333164,0.57925296
332,2026-05-11 16:08:23.793175,-0.2628812,1.6158869,0.7798626,-1.645671,-2.7333164,0.57925296
333,2026-05-11 16:08:23.796000,-0.2628812,1.6158869,0.7798626,-1.645671,-2.7333164,0.57925296
334,2026-05-11 16:08:23.798544,-0.2628812,1.6158869,0.7798626,-1.645671,-2.7333164,0.57925296
335,2026-05-11 16:08:23.801549,-0.2628812,1.6158869,0.7798626,-1.645671,-2.7333164,0.57925296
336,2026-05-11 16:08:23.804181,-0.2628812,1.6158869,0.7798626,-1.645671,-2.7333164,0.57925296
337,2026-05-11 16:08:23.806831,-0.2628812,1.6158869,0.7798626,-1.645671,-2.7333164,0.57925296
338,2026-05-11 16:08:23.809399,-0.2628812,1.6158869,0.7798626,-1.645671,-2.7333164,0.57925296
339,2026-05-11 16:08:23.811956,-0.2628812,1.6158869,0.7798626,-1.645671,-2.7333164,0.57925296
340,2026-05-11 16:08:23.814532,-0.2628812,1.6158869,0.7798626,-1.645671,-2.7333164,0.57925296
341,2026-05-11 16:08:23.817435,-0.2628812,1.6158869,0.7798626,-1.645671,-2.7333164,0.57925296
342,2026-05-11 16:08:23.820092,-0.2628812,1.6158869,0.7798626,-1.645671,-2.7333164,0.57925296
343,2026-05-11 16:08:23.822684,-0.2628812,1.6158869,0.7798626,-1.645671,-2.7333164,0.57925296
344,2026-05-11 16:08:23.825262,-0.2628812,1.6158869,0.7798626,-1.645671,-2.7333164,0.57925296
345,2026-05-11 16:08:23.827803,-0.2628812,1.6158869,0.7798626,-1.645671,-2.7333164,0.57925296
346,2026-05-11 16:08:23.830350,-0.2628812,1.6158869,0.7798626,-1.645671,-2.7333164,0.57925296
347,2026-05-11 16:08:23.832944,-0.2628812,1.6158869,0.7798626,-1.645671,-2.7333164,0.57925296
348,2026-05-11 16:08:23.836025,-0.2628812,1.6158869,0.7798626,-1.645671,-2.7333164,0.57925296
349,2026-05-11 16:08:23.838668,-0.2628812,1.6158869,0.7798626,-1.645671,-2.7333164,0.57925296
350,2026-05-11 16:08:23.841440,-0.2628812,1.6158869,0.7798626,-1.645671,-2.7333164,0.57925296
351,2026-05-11 16:08:23.844059,-0.2628812,1.6158869,0.7798626,-1.645671,-2.7333164,0.57925296
352,2026-05-11 16:08:23.846927,-0.2628812,1.6158869,0.7798626,-1.645671,-2.7333164,0.57925296
353,2026-05-11 16:08:23.849759,-0.2628812,1.6158869,0.7798626,-1.645671,-2.7333164,0.57925296
354,2026-05-11 16:08:23.852809,-0.2628812,1.6158869,0.7798626,-1.645671,-2.7333164,0.57925296
355,2026-05-11 16:08:23.855453,-0.2628812,1.6158869,0.7798626,-1.645671,-2.7333164,0.57925296
356,2026-05-11 16:08:23.858163,-0.2628812,1.6158869,0.7798626,-1.645671,-2.7333164,0.57925296
357,2026-05-11 16:08:23.860727,-0.2628812,1.6158869,0.7798626,-1.645671,-2.7333164,0.57925296
358,2026-05-11 16:08:23.863398,-0.2628812,1.6158869,0.7798626,-1.645671,-2.7333164,0.57925296
359,2026-05-11 16:08:23.865942,-0.2628812,1.6158869,0.7798626,-1.645671,-2.7333164,0.57925296
360,2026-05-11 16:08:23.868920,-0.2628812,1.6158869,0.7798626,-1.645671,-2.7333164,0.57925296
361,2026-05-11 16:08:23.871653,-0.2628812,1.6158869,0.7798626,-1.645671,-2.7333164,0.57925296
362,2026-05-11 16:08:23.874233,-0.2628812,1.6158869,0.7798626,-1.645671,-2.7333164,0.57925296
363,2026-05-11 16:08:23.876795,-0.2628812,1.6158869,0.7798626,-1.645671,-2.7333164,0.57925296
364,2026-05-11 16:08:23.879361,-0.2628812,1.6158869,0.7798626,-1.645671,-2.7333164,0.57925296
365,2026-05-11 16:08:23.881894,-0.2628812,1.6158869,0.7798626,-1.645671,-2.7333164,0.57925296
366,2026-05-11 16:08:23.885146,-0.2628812,1.6158869,0.7798626,-1.645671,-2.7333164,0.57925296
367,2026-05-11 16:08:23.888033,-0.2628812,1.6158869,0.7798626,-1.645671,-2.7333164,0.57925296
368,2026-05-11 16:08:23.890617,-0.2628812,1.6158869,0.7798626,-1.645671,-2.7333164,0.57925296
369,2026-05-11 16:08:23.893170,-0.2628812,1.6158869,0.7798626,-1.645671,-2.7333164,0.57925296
370,2026-05-11 16:08:23.895914,-0.2628812,1.6158869,0.7798626,-1.645671,-2.7333164,0.57925296
371,2026-05-11 16:08:23.898516,-0.2628812,1.6158869,0.7798626,-1.645671,-2.7333164,0.57925296
372,2026-05-11 16:08:23.901669,-0.2628812,1.6158869,0.7798626,-1.645671,-2.7333164,0.57925296
373,2026-05-11 16:08:23.904376,-0.2628812,1.6158869,0.7798626,-1.645671,-2.7333164,0.57925296
374,2026-05-11 16:08:23.906986,-0.2628812,1.6158869,0.7798626,-1.645671,-2.7333164,0.57925296
375,2026-05-11 16:08:23.909769,-0.2628812,1.6158869,0.7798626,-1.645671,-2.7333164,0.57925296
376,2026-05-11 16:08:23.912382,-0.29373667,1.6707072,1.0315846,-1.5726726,-2.7860036,0.49663344
377,2026-05-11 16:08:23.915093,-0.29373667,1.6707072,1.0315846,-1.5726726,-2.7860036,0.49663344
378,2026-05-11 16:08:23.918022,-0.29373667,1.6707072,1.0315846,-1.5726726,-2.7860036,0.49663344
379,2026-05-11 16:08:23.921290,-0.29373667,1.6707072,1.0315846,-1.5726726,-2.7860036,0.49663344
380,2026-05-11 16:08:23.924046,-0.29373667,1.6707072,1.0315846,-1.5726726,-2.7860036,0.49663344
381,2026-05-11 16:08:23.926702,-0.29373667,1.6707072,1.0315846,-1.5726726,-2.7860036,0.49663344
382,2026-05-11 16:08:23.929268,-0.29373667,1.6707072,1.0315846,-1.5726726,-2.7860036,0.49663344
383,2026-05-11 16:08:23.931998,-0.29373667,1.6707072,1.0315846,-1.5726726,-2.7860036,0.49663344
384,2026-05-11 16:08:23.934770,-0.29373667,1.6707072,1.0315846,-1.5726726,-2.7860036,0.49663344
385,2026-05-11 16:08:23.938025,-0.29373667,1.6707072,1.0315846,-1.5726726,-2.7860036,0.49663344
386,2026-05-11 16:08:23.940785,-0.29373667,1.6707072,1.0315846,-1.5726726,-2.7860036,0.49663344
387,2026-05-11 16:08:23.943606,-0.29373667,1.6707072,1.0315846,-1.5726726,-2.7860036,0.49663344
388,2026-05-11 16:08:23.946191,-0.29373667,1.6707072,1.0315846,-1.5726726,-2.7860036,0.49663344
389,2026-05-11 16:08:23.948949,-0.29373667,1.6707072,1.0315846,-1.5726726,-2.7860036,0.49663344
390,2026-05-11 16:08:23.951902,-0.29373667,1.6707072,1.0315846,-1.5726726,-2.7860036,0.49663344
391,2026-05-11 16:08:23.954665,-0.29373667,1.6707072,1.0315846,-1.5726726,-2.7860036,0.49663344
392,2026-05-11 16:08:23.957322,-0.29373667,1.6707072,1.0315846,-1.5726726,-2.7860036,0.49663344
393,2026-05-11 16:08:23.959979,-0.29373667,1.6707072,1.0315846,-1.5726726,-2.7860036,0.49663344
394,2026-05-11 16:08:23.962519,-0.29373667,1.6707072,1.0315846,-1.5726726,-2.7860036,0.49663344
395,2026-05-11 16:08:23.965229,-0.29373667,1.6707072,1.0315846,-1.5726726,-2.7860036,0.49663344
396,2026-05-11 16:08:23.968160,-0.29373667,1.6707072,1.0315846,-1.5726726,-2.7860036,0.49663344
397,2026-05-11 16:08:23.970859,-0.29373667,1.6707072,1.0315846,-1.5726726,-2.7860036,0.49663344
398,2026-05-11 16:08:23.973606,-0.29373667,1.6707072,1.0315846,-1.5726726,-2.7860036,0.49663344
399,2026-05-11 16:08:23.976182,-0.29373667,1.6707072,1.0315846,-1.5726726,-2.7860036,0.49663344
400,2026-05-11 16:08:23.978762,-0.29373667,1.6707072,1.0315846,-1.5726726,-2.7860036,0.49663344
401,2026-05-11 16:08:23.981529,-0.29373667,1.6707072,1.0315846,-1.5726726,-2.7860036,0.49663344
402,2026-05-11 16:08:23.984512,-0.29373667,1.6707072,1.0315846,-1.5726726,-2.7860036,0.49663344
403,2026-05-11 16:08:23.987205,-0.29373667,1.6707072,1.0315846,-1.5726726,-2.7860036,0.49663344
404,2026-05-11 16:08:23.989771,-0.29373667,1.6707072,1.0315846,-1.5726726,-2.7860036,0.49663344
405,2026-05-11 16:08:23.992299,-0.29373667,1.6707072,1.0315846,-1.5726726,-2.7860036,0.49663344
406,2026-05-11 16:08:23.995058,-0.29373667,1.6707072,1.0315846,-1.5726726,-2.7860036,0.49663344
407,2026-05-11 16:08:23.997619,-0.29373667,1.6707072,1.0315846,-1.5726726,-2.7860036,0.49663344
408,2026-05-11 16:08:24.000608,-0.29373667,1.6707072,1.0315846,-1.5726726,-2.7860036,0.49663344
409,2026-05-11 16:08:24.003414,-0.29373667,1.6707072,1.0315846,-1.5726726,-2.7860036,0.49663344
410,2026-05-11 16:08:24.005993,-0.29373667,1.6707072,1.0315846,-1.5726726,-2.7860036,0.49663344
411,2026-05-11 16:08:24.008630,-0.29373667,1.6707072,1.0315846,-1.5726726,-2.7860036,0.49663344
412,2026-05-11 16:08:24.011168,-0.29373667,1.6707072,1.0315846,-1.5726726,-2.7860036,0.49663344
413,2026-05-11 16:08:24.013960,-0.29373667,1.6707072,1.0315846,-1.5726726,-2.7860036,0.49663344
414,2026-05-11 16:08:24.016747,-0.29373667,1.6707072,1.0315846,-1.5726726,-2.7860036,0.49663344
415,2026-05-11 16:08:24.019826,-0.29373667,1.6707072,1.0315846,-1.5726726,-2.7860036,0.49663344
416,2026-05-11 16:08:24.022439,-0.29373667,1.6707072,1.0315846,-1.5726726,-2.7860036,0.49663344
417,2026-05-11 16:08:24.024968,-0.29373667,1.6707072,1.0315846,-1.5726726,-2.7860036,0.49663344
418,2026-05-11 16:08:24.027874,-0.29373667,1.6707072,1.0315846,-1.5726726,-2.7860036,0.49663344
419,2026-05-11 16:08:24.030603,-0.29373667,1.6707072,1.0315846,-1.5726726,-2.7860036,0.49663344
420,2026-05-11 16:08:24.033681,-0.29373667,1.6707072,1.0315846,-1.5726726,-2.7860036,0.49663344
421,2026-05-11 16:08:24.036480,-0.29373667,1.6707072,1.0315846,-1.5726726,-2.7860036,0.49663344
422,2026-05-11 16:08:24.039175,-0.29373667,1.6707072,1.0315846,-1.5726726,-2.7860036,0.49663344
423,2026-05-11 16:08:24.041741,-0.29373667,1.6707072,1.0315846,-1.5726726,-2.7860036,0.49663344
424,2026-05-11 16:08:24.044532,-0.29373667,1.6707072,1.0315846,-1.5726726,-2.7860036,0.49663344
425,2026-05-11 16:08:24.047119,-0.29373667,1.6707072,1.0315846,-1.5726726,-2.7860036,0.49663344
426,2026-05-11 16:08:24.049992,-0.44777006,1.8661455,1.7671763,0.63239825,-2.5708263,-0.07620544
427,2026-05-11 16:08:24.053089,-0.44777006,1.8661455,1.7671763,0.63239825,-2.5708263,-0.07620544
428,2026-05-11 16:08:24.055753,-0.44777006,1.8661455,1.7671763,0.63239825,-2.5708263,-0.07620544
429,2026-05-11 16:08:24.058430,-0.44777006,1.8661455,1.7671763,0.63239825,-2.5708263,-0.07620544
430,2026-05-11 16:08:24.061033,-0.44777006,1.8661455,1.7671763,0.63239825,-2.5708263,-0.07620544
431,2026-05-11 16:08:24.063774,-0.44777006,1.8661455,1.7671763,0.63239825,-2.5708263,-0.07620544
432,2026-05-11 16:08:24.066949,-0.44777006,1.8661455,1.7671763,0.63239825,-2.5708263,-0.07620544
433,2026-05-11 16:08:24.069713,-0.44777006,1.8661455,1.7671763,0.63239825,-2.5708263,-0.07620544
434,2026-05-11 16:08:24.072323,-0.44777006,1.8661455,1.7671763,0.63239825,-2.5708263,-0.07620544
435,2026-05-11 16:08:24.075046,-0.44777006,1.8661455,1.7671763,0.63239825,-2.5708263,-0.07620544
436,2026-05-11 16:08:24.077655,-0.44777006,1.8661455,1.7671763,0.63239825,-2.5708263,-0.07620544
437,2026-05-11 16:08:24.080390,-0.44777006,1.8661455,1.7671763,0.63239825,-2.5708263,-0.07620544
438,2026-05-11 16:08:24.082979,-0.44777006,1.8661455,1.7671763,0.63239825,-2.5708263,-0.07620544
439,2026-05-11 16:08:24.086277,-0.44777006,1.8661455,1.7671763,0.63239825,-2.5708263,-0.07620544
440,2026-05-11 16:08:24.088993,-0.44777006,1.8661455,1.7671763,0.63239825,-2.5708263,-0.07620544
441,2026-05-11 16:08:24.091541,-0.44777006,1.8661455,1.7671763,0.63239825,-2.5708263,-0.07620544
442,2026-05-11 16:08:24.094158,-0.44777006,1.8661455,1.7671763,0.63239825,-2.5708263,-0.07620544
443,2026-05-11 16:08:24.096734,-0.44777006,1.8661455,1.7671763,0.63239825,-2.5708263,-0.07620544
444,2026-05-11 16:08:24.099553,-0.44777006,1.8661455,1.7671763,0.63239825,-2.5708263,-0.07620544
445,2026-05-11 16:08:24.102665,-0.44777006,1.8661455,1.7671763,0.63239825,-2.5708263,-0.07620544
446,2026-05-11 16:08:24.105297,-0.44777006,1.8661455,1.7671763,0.63239825,-2.5708263,-0.07620544
447,2026-05-11 16:08:24.108083,-0.44777006,1.8661455,1.7671763,0.63239825,-2.5708263,-0.07620544
448,2026-05-11 16:08:24.110680,-0.44777006,1.8661455,1.7671763,0.63239825,-2.5708263,-0.07620544
449,2026-05-11 16:08:24.113255,-0.44777006,1.8661455,1.7671763,0.63239825,-2.5708263,-0.07620544
450,2026-05-11 16:08:24.116470,-0.44777006,1.8661455,1.7671763,0.63239825,-2.5708263,-0.07620544
451,2026-05-11 16:08:24.119484,-0.44777006,1.8661455,1.7671763,0.63239825,-2.5708263,-0.07620544
452,2026-05-11 16:08:24.122170,-0.44777006,1.8661455,1.7671763,0.63239825,-2.5708263,-0.07620544
453,2026-05-11 16:08:24.124743,-0.44777006,1.8661455,1.7671763,0.63239825,-2.5708263,-0.07620544
454,2026-05-11 16:08:24.127458,-0.44777006,1.8661455,1.7671763,0.63239825,-2.5708263,-0.07620544
455,2026-05-11 16:08:24.130022,-0.44777006,1.8661455,1.7671763,0.63239825,-2.5708263,-0.07620544
456,2026-05-11 16:08:24.132800,-0.44777006,1.8661455,1.7671763,0.63239825,-2.5708263,-0.07620544
457,2026-05-11 16:08:24.135986,-0.57911915,1.7866896,1.8369974,2.225993,-1.7896825,0.030848695
458,2026-05-11 16:08:24.138591,-0.57911915,1.7866896,1.8369974,2.225993,-1.7896825,0.030848695
459,2026-05-11 16:08:24.141325,-0.57911915,1.7866896,1.8369974,2.225993,-1.7896825,0.030848695
460,2026-05-11 16:08:24.143880,-0.57911915,1.7866896,1.8369974,2.225993,-1.7896825,0.030848695
461,2026-05-11 16:08:24.146450,-0.57911915,1.7866896,1.8369974,2.225993,-1.7896825,0.030848695
462,2026-05-11 16:08:24.149012,-0.57911915,1.7866896,1.8369974,2.225993,-1.7896825,0.030848695
463,2026-05-11 16:08:24.152128,-0.60607195,1.7055873,1.8887687,2.225993,-1.7896825,0.030848695
464,2026-05-11 16:08:24.154700,-0.60607195,1.7055873,1.8887687,2.225993,-1.7896825,0.030848695
465,2026-05-11 16:08:24.157222,-0.60607195,1.7055873,1.8887687,2.225993,-1.7896825,0.030848695
466,2026-05-11 16:08:24.159761,-0.60607195,1.7055873,1.8887687,2.225993,-1.7896825,0.030848695
467,2026-05-11 16:08:24.162522,-0.60607195,1.7055873,1.8887687,2.225993,-1.7896825,0.030848695
468,2026-05-11 16:08:24.165167,-0.60607195,1.7055873,1.8887687,2.225993,-1.7896825,0.030848695
469,2026-05-11 16:08:24.168284,-0.60607195,1.7055873,1.8887687,2.225993,-1.7896825,0.030848695
470,2026-05-11 16:08:24.170955,-0.60607195,1.7055873,1.8887687,2.225993,-1.7896825,0.030848695
471,2026-05-11 16:08:24.173501,-0.60607195,1.7055873,1.8887687,2.225993,-1.7896825,0.030848695
472,2026-05-11 16:08:24.176195,-0.60607195,1.7055873,1.8887687,2.225993,-1.7896825,0.030848695
473,2026-05-11 16:08:24.178783,-0.60607195,1.7055873,1.8887687,2.225993,-1.7896825,0.030848695
474,2026-05-11 16:08:24.181335,-0.60607195,1.7055873,1.8887687,2.225993,-1.7896825,0.030848695
475,2026-05-11 16:08:24.184224,-0.60607195,1.7055873,1.8887687,2.225993,-1.7896825,0.030848695
476,2026-05-11 16:08:24.186835,-0.60607195,1.7055873,1.8887687,2.225993,-1.7896825,0.030848695
477,2026-05-11 16:08:24.189410,-0.60607195,1.7055873,1.8887687,2.225993,-1.7896825,0.030848695
478,2026-05-11 16:08:24.192183,-0.60607195,1.7055873,1.8887687,2.225993,-1.7896825,0.030848695
479,2026-05-11 16:08:24.194902,-0.60607195,1.7055873,1.8887687,2.225993,-1.7896825,0.030848695
480,2026-05-11 16:08:24.197465,-0.60607195,1.7055873,1.8887687,2.225993,-1.7896825,0.030848695
481,2026-05-11 16:08:24.200429,-0.60607195,1.7055873,1.8887687,2.225993,-1.7896825,0.030848695
482,2026-05-11 16:08:24.203250,-0.60607195,1.7055873,1.8887687,2.225993,-1.7896825,0.030848695
483,2026-05-11 16:08:24.205844,-0.60607195,1.7055873,1.8887687,2.225993,-1.7896825,0.030848695
484,2026-05-11 16:08:24.208379,-0.60607195,1.7055873,1.8887687,2.225993,-1.7896825,0.030848695
485,2026-05-11 16:08:24.211046,-0.60607195,1.7055873,1.8887687,2.225993,-1.7896825,0.030848695
486,2026-05-11 16:08:24.213607,-0.60607195,1.7055873,1.8887687,2.225993,-1.7896825,0.030848695
487,2026-05-11 16:08:24.216368,-0.60607195,1.7055873,1.8887687,2.225993,-1.7896825,0.030848695
488,2026-05-11 16:08:24.219377,-0.60607195,1.7055873,1.8887687,2.225993,-1.7896825,0.030848695
489,2026-05-11 16:08:24.221961,-0.60607195,1.7055873,1.8887687,2.225993,-1.7896825,0.030848695
490,2026-05-11 16:08:24.224793,-0.60607195,1.7055873,1.8887687,2.225993,-1.7896825,0.030848695
491,2026-05-11 16:08:24.227401,-0.60607195,1.7055873,1.8887687,2.225993,-1.7896825,0.030848695
492,2026-05-11 16:08:24.230051,-0.60607195,1.7055873,1.8887687,2.225993,-1.7896825,0.030848695
493,2026-05-11 16:08:24.232589,-0.60607195,1.7055873,1.8887687,2.225993,-1.7896825,0.030848695
494,2026-05-11 16:08:24.235760,-0.60607195,1.7055873,1.8887687,2.225993,-1.7896825,0.030848695
495,2026-05-11 16:08:24.238408,-0.60607195,1.7055873,1.8887687,2.225993,-1.7896825,0.030848695
496,2026-05-11 16:08:24.240973,-0.60607195,1.7055873,1.8887687,2.225993,-1.7896825,0.030848695
497,2026-05-11 16:08:24.243574,-0.60607195,1.7055873,1.8887687,2.225993,-1.7896825,0.030848695
498,2026-05-11 16:08:24.246149,-0.60607195,1.7055873,1.8887687,2.225993,-1.7896825,0.030848695
499,2026-05-11 16:08:24.248824,-0.60607195,1.7055873,1.8887687,2.225993,-1.7896825,0.030848695
500,2026-05-11 16:08:24.251616,-0.60607195,1.7055873,1.8887687,2.225993,-1.7896825,0.030848695
501,2026-05-11 16:08:24.254977,-0.60607195,1.7055873,1.8887687,2.225993,-1.7896825,0.030848695
502,2026-05-11 16:08:24.257825,-0.60607195,1.7055873,1.8887687,2.225993,-1.7896825,0.030848695
503,2026-05-11 16:08:24.260680,-0.60607195,1.7055873,1.8887687,2.225993,-1.7896825,0.030848695
504,2026-05-11 16:08:24.263325,-0.60607195,1.7055873,1.8887687,2.225993,-1.7896825,0.030848695
505,2026-05-11 16:08:24.265965,-0.60607195,1.7055873,1.8887687,2.225993,-1.7896825,0.030848695
506,2026-05-11 16:08:24.268698,-0.60607195,1.7055873,1.8887687,2.225993,-1.7896825,0.030848695
507,2026-05-11 16:08:24.272157,-0.60607195,1.7055873,1.8887687,2.225993,-1.7896825,0.030848695
508,2026-05-11 16:08:24.275068,-0.60607195,1.7055873,1.8887687,2.225993,-1.7896825,0.030848695
509,2026-05-11 16:08:24.277798,-0.60607195,1.7055873,1.8887687,2.225993,-1.7896825,0.030848695
510,2026-05-11 16:08:24.280366,-0.60607195,1.7055873,1.8887687,2.225993,-1.7896825,0.030848695
511,2026-05-11 16:08:24.283476,-0.60607195,1.7055873,1.8887687,2.225993,-1.7896825,0.030848695
512,2026-05-11 16:08:24.286359,-0.60607195,1.7055873,1.8887687,2.225993,-1.7896825,0.030848695
513,2026-05-11 16:08:24.289196,-0.5568008,1.4212414,1.7421749,2.9946141,-1.5167783,0.15042557
514,2026-05-11 16:08:24.291816,-0.5568008,1.4212414,1.7421749,2.9946141,-1.5167783,0.15042557
515,2026-05-11 16:08:24.294574,-0.5568008,1.4212414,1.7421749,2.9946141,-1.5167783,0.15042557
516,2026-05-11 16:08:24.297363,-0.5527152,1.2861725,1.4969167,5.0935473,-1.340391,0.33582318
517,2026-05-11 16:08:24.300428,-0.5527152,1.2861725,1.4969167,5.0935473,-1.340391,0.33582318
518,2026-05-11 16:08:24.303556,-0.5527152,1.2861725,1.4969167,5.0935473,-1.340391,0.33582318
519,2026-05-11 16:08:24.306195,-0.5527152,1.2861725,1.4969167,5.0935473,-1.340391,0.33582318
520,2026-05-11 16:08:24.308851,-0.5527152,1.2861725,1.4969167,5.0935473,-1.340391,0.33582318
521,2026-05-11 16:08:24.311565,-0.5527152,1.2861725,1.4969167,5.0935473,-1.340391,0.33582318
522,2026-05-11 16:08:24.314106,-0.5527152,1.2861725,1.4969167,5.0935473,-1.340391,0.33582318
523,2026-05-11 16:08:24.317023,-0.5527152,1.2861725,1.4969167,5.0935473,-1.340391,0.33582318
524,2026-05-11 16:08:24.319856,-0.5527152,1.2861725,1.4969167,5.0935473,-1.340391,0.33582318
525,2026-05-11 16:08:24.322457,-0.5527152,1.2861725,1.4969167,5.0935473,-1.340391,0.33582318
526,2026-05-11 16:08:24.325197,-0.5527152,1.2861725,1.4969167,5.0935473,-1.340391,0.33582318
527,2026-05-11 16:08:24.327786,-0.5527152,1.2861725,1.4969167,5.0935473,-1.340391,0.33582318
528,2026-05-11 16:08:24.330372,-0.5527152,1.2861725,1.4969167,5.0935473,-1.340391,0.33582318
529,2026-05-11 16:08:24.333502,-0.5527152,1.2861725,1.4969167,5.0935473,-1.340391,0.33582318
530,2026-05-11 16:08:24.336266,-0.5527152,1.2861725,1.4969167,5.0935473,-1.340391,0.33582318
531,2026-05-11 16:08:24.338900,-0.5527152,1.2861725,1.4969167,5.0935473,-1.340391,0.33582318
532,2026-05-11 16:08:24.341396,-0.5527152,1.2861725,1.4969167,5.0935473,-1.340391,0.33582318
533,2026-05-11 16:08:24.344225,-0.5527152,1.2861725,1.4969167,6.0191607,-1.6316211,0.32727104
534,2026-05-11 16:08:24.346838,-0.5527152,1.2861725,1.4969167,6.0191607,-1.6316211,0.32727104
535,2026-05-11 16:08:24.349516,-0.5527152,1.2861725,1.4969167,6.0191607,-1.6316211,0.32727104
536,2026-05-11 16:08:24.352796,-0.5527152,1.2861725,1.4969167,6.0191607,-1.6316211,0.32727104
537,2026-05-11 16:08:24.355568,-0.5527152,1.2861725,1.4969167,6.0191607,-1.6316211,0.32727104
538,2026-05-11 16:08:24.358199,-0.5527152,1.2861725,1.4969167,6.0191607,-1.6316211,0.32727104
539,2026-05-11 16:08:24.360746,-0.5527152,1.2861725,1.4969167,6.0191607,-1.6316211,0.32727104
540,2026-05-11 16:08:24.363457,-0.5527152,1.2861725,1.4969167,6.0191607,-1.6316211,0.32727104
541,2026-05-11 16:08:24.366050,-0.54893446,1.1897036,1.144701,6.0191607,-1.6316211,0.32727104
542,2026-05-11 16:08:24.368967,-0.54283655,1.1084794,0.8368171,6.0191607,-1.6316211,0.32727104
543,2026-05-11 16:08:24.371696,-0.54283655,1.1084794,0.8368171,6.5547366,-1.9808832,0.2762638
544,2026-05-11 16:08:24.374269,-0.54283655,1.1084794,0.8368171,6.5547366,-1.9808832,0.2762638
545,2026-05-11 16:08:24.376794,-0.54283655,1.1084794,0.8368171,6.5547366,-1.9808832,0.2762638
546,2026-05-11 16:08:24.379444,-0.54283655,1.1084794,0.8368171,6.5547366,-1.9808832,0.2762638
547,2026-05-11 16:08:24.382172,-0.54283655,1.1084794,0.8368171,6.5547366,-1.9808832,0.2762638
548,2026-05-11 16:08:24.385621,-0.54283655,1.1084794,0.8368171,6.5547366,-1.9808832,0.2762638
549,2026-05-11 16:08:24.388277,-0.54283655,1.1084794,0.8368171,6.5547366,-1.9808832,0.2762638
550,2026-05-11 16:08:24.390890,-0.54283655,1.1084794,0.8368171,6.5547366,-1.9808832,0.2762638
551,2026-05-11 16:08:24.393481,-0.54283655,1.1084794,0.8368171,6.5547366,-1.9808832,0.2762638
552,2026-05-11 16:08:24.396292,-0.54283655,1.1084794,0.8368171,6.5547366,-1.9808832,0.2762638
553,2026-05-11 16:08:24.398965,-0.54283655,1.1084794,0.8368171,6.5547366,-1.9808832,0.2762638
554,2026-05-11 16:08:24.402097,-0.54283655,1.1084794,0.8368171,6.5547366,-1.9808832,0.2762638
555,2026-05-11 16:08:24.404818,-0.54283655,1.1084794,0.8368171,6.5547366,-1.9808832,0.2762638
556,2026-05-11 16:08:24.407418,-0.54283655,1.1084794,0.8368171,6.5547366,-1.9808832,0.2762638
557,2026-05-11 16:08:24.410161,-0.54283655,1.1084794,0.8368171,6.5547366,-1.9808832,0.2762638
558,2026-05-11 16:08:24.412752,-0.54283655,1.1084794,0.8368171,6.5547366,-1.9808832,0.2762638
559,2026-05-11 16:08:24.415402,-0.54283655,1.1084794,0.8368171,6.5547366,-1.9808832,0.2762638
560,2026-05-11 16:08:24.418550,-0.54283655,1.1084794,0.8368171,6.5547366,-1.9808832,0.2762638
561,2026-05-11 16:08:24.421168,-0.54283655,1.1084794,0.8368171,6.5547366,-1.9808832,0.2762638
562,2026-05-11 16:08:24.423967,-0.54283655,1.1084794,0.8368171,6.5547366,-1.9808832,0.2762638
563,2026-05-11 16:08:24.426547,-0.54283655,1.1084794,0.8368171,6.5547366,-1.9808832,0.2762638
564,2026-05-11 16:08:24.429319,-0.54283655,1.1084794,0.8368171,6.5547366,-1.9808832,0.2762638
565,2026-05-11 16:08:24.431888,-0.54283655,1.1084794,0.8368171,6.5547366,-1.9808832,0.2762638
566,2026-05-11 16:08:24.434917,-0.5397876,1.07427,0.56942344,6.5547366,-1.9808832,0.2762638
567,2026-05-11 16:08:24.437736,-0.5397876,1.07427,0.56942344,6.5547366,-1.9808832,0.2762638
568,2026-05-11 16:08:24.440305,-0.5397876,1.07427,0.56942344,6.5547366,-1.9808832,0.2762638
569,2026-05-11 16:08:24.442869,-0.5397876,1.07427,0.56942344,6.5547366,-1.9808832,0.2762638
570,2026-05-11 16:08:24.445634,-0.5397876,1.07427,0.56942344,6.5547366,-1.9808832,0.2762638
571,2026-05-11 16:08:24.448224,-0.5397876,1.07427,0.56942344,6.5547366,-1.9808832,0.2762638
572,2026-05-11 16:08:24.451506,-0.5397876,1.07427,0.56942344,6.5547366,-1.9808832,0.2762638
573,2026-05-11 16:08:24.454279,-0.5397876,1.07427,0.56942344,6.5547366,-1.9808832,0.2762638
574,2026-05-11 16:08:24.456954,-0.5397876,1.07427,0.56942344,6.5547366,-1.9808832,0.2762638
575,2026-05-11 16:08:24.459584,-0.5397876,1.07427,0.56942344,6.5547366,-1.9808832,0.2762638
576,2026-05-11 16:08:24.462258,-0.5397876,1.07427,0.56942344,6.5547366,-1.9808832,0.2762638
577,2026-05-11 16:08:24.464963,-0.5397876,1.07427,0.56942344,6.5547366,-1.9808832,0.2762638
578,2026-05-11 16:08:24.467985,-0.5397876,1.07427,0.56942344,6.5547366,-1.9808832,0.2762638
579,2026-05-11 16:08:24.470874,-0.5397876,1.07427,0.56942344,6.840622,-2.3080015,0.23105977
580,2026-05-11 16:08:24.473491,-0.5397876,1.07427,0.56942344,6.840622,-2.3080015,0.23105977
581,2026-05-11 16:08:24.476118,-0.5397876,1.07427,0.56942344,6.840622,-2.3080015,0.23105977
582,2026-05-11 16:08:24.478889,-0.5397876,1.07427,0.56942344,6.840622,-2.3080015,0.23105977
583,2026-05-11 16:08:24.481466,-0.5397876,1.07427,0.56942344,6.840622,-2.3080015,0.23105977
584,2026-05-11 16:08:24.484412,-0.5397876,1.07427,0.56942344,6.840622,-2.3080015,0.23105977
585,2026-05-11 16:08:24.487126,-0.5397876,1.07427,0.56942344,6.840622,-2.3080015,0.23105977
586,2026-05-11 16:08:24.489713,-0.5397876,1.07427,0.56942344,6.840622,-2.3080015,0.23105977
587,2026-05-11 16:08:24.492349,-0.5397876,1.07427,0.56942344,6.840622,-2.3080015,0.23105977
588,2026-05-11 16:08:24.494914,-0.5397876,1.07427,0.56942344,6.840622,-2.3080015,0.23105977
589,2026-05-11 16:08:24.497485,-0.5397876,1.07427,0.56942344,6.840622,-2.3080015,0.23105977
590,2026-05-11 16:08:24.500428,-0.5397876,1.07427,0.56942344,6.840622,-2.3080015,0.23105977
591,2026-05-11 16:08:24.503236,-0.5397876,1.07427,0.56942344,6.840622,-2.3080015,0.23105977
592,2026-05-11 16:08:24.505843,-0.5397876,1.07427,0.56942344,6.840622,-2.3080015,0.23105977
593,2026-05-11 16:08:24.508527,-0.5397876,1.07427,0.56942344,6.840622,-2.3080015,0.23105977
594,2026-05-11 16:08:24.511146,-0.5397876,1.07427,0.56942344,6.840622,-2.3080015,0.23105977
595,2026-05-11 16:08:24.514005,-0.5397876,1.07427,0.56942344,6.840622,-2.3080015,0.23105977
596,2026-05-11 16:08:24.516889,-0.48368677,1.0703673,0.35837457,6.840622,-2.3080015,0.23105977
597,2026-05-11 16:08:24.520359,-0.48368677,1.0703673,0.35837457,6.863071,-2.4729352,0.18906279
598,2026-05-11 16:08:24.523225,-0.48368677,1.0703673,0.35837457,6.863071,-2.4729352,0.18906279
599,2026-05-11 16:08:24.525936,-0.30696914,1.0570129,0.13067836,6.3954535,-2.313194,0.054825157
600,2026-05-11 16:08:24.528494,-0.30696914,1.0570129,0.13067836,6.3954535,-2.313194,0.054825157
601,2026-05-11 16:08:24.531054,-0.30696914,1.0570129,0.13067836,6.3954535,-2.313194,0.054825157
602,2026-05-11 16:08:24.533664,-0.30696914,1.0570129,0.13067836,6.3954535,-2.313194,0.054825157
603,2026-05-11 16:08:24.537274,-0.30696914,1.0570129,0.13067836,6.3954535,-2.313194,0.054825157
604,2026-05-11 16:08:24.540037,-0.30696914,1.0570129,0.13067836,6.3954535,-2.313194,0.054825157
605,2026-05-11 16:08:24.542646,-0.30696914,1.0570129,0.13067836,6.3954535,-2.313194,0.054825157
606,2026-05-11 16:08:24.545449,-0.30696914,1.0570129,0.13067836,6.3954535,-2.313194,0.054825157
607,2026-05-11 16:08:24.548029,-0.30696914,1.0570129,0.13067836,6.3954535,-2.313194,0.054825157
608,2026-05-11 16:08:24.550998,-0.30696914,1.0570129,0.13067836,6.3954535,-2.313194,0.054825157
609,2026-05-11 16:08:24.553830,-0.30696914,1.0570129,0.13067836,6.3954535,-2.313194,0.054825157
610,2026-05-11 16:08:24.556402,-0.30696914,1.0570129,0.13067836,6.3954535,-2.313194,0.054825157
611,2026-05-11 16:08:24.558993,-0.30696914,1.0570129,0.13067836,6.3954535,-2.313194,0.054825157
612,2026-05-11 16:08:24.561651,-0.30696914,1.0570129,0.13067836,6.3954535,-2.313194,0.054825157
613,2026-05-11 16:08:24.564323,-0.30696914,1.0570129,0.13067836,6.3954535,-2.313194,0.054825157
614,2026-05-11 16:08:24.567175,-0.30696914,1.0570129,0.13067836,6.3954535,-2.313194,0.054825157
615,2026-05-11 16:08:24.570603,-0.30696914,1.0570129,0.13067836,6.3954535,-2.313194,0.054825157
616,2026-05-11 16:08:24.573336,-0.30696914,1.0570129,0.13067836,6.3954535,-2.313194,0.054825157
617,2026-05-11 16:08:24.576054,-0.30696914,1.0570129,0.13067836,6.3954535,-2.313194,0.054825157
618,2026-05-11 16:08:24.578771,-0.30696914,1.0570129,0.13067836,6.3954535,-2.313194,0.054825157
619,2026-05-11 16:08:24.581406,-0.30696914,1.0570129,0.13067836,6.3954535,-2.313194,0.054825157
620,2026-05-11 16:08:24.584443,-0.30696914,1.0570129,0.13067836,6.3954535,-2.313194,0.054825157
621,2026-05-11 16:08:24.587323,-0.30696914,1.0570129,0.13067836,6.3954535,-2.313194,0.054825157
622,2026-05-11 16:08:24.590067,-0.30696914,1.0570129,0.13067836,6.3954535,-2.313194,0.054825157
623,2026-05-11 16:08:24.592644,-0.30696914,1.0570129,0.13067836,6.3954535,-2.313194,0.054825157
624,2026-05-11 16:08:24.595260,-0.30696914,1.0570129,0.13067836,6.3954535,-2.313194,0.054825157
625,2026-05-11 16:08:24.597990,-0.30696914,1.0570129,0.13067836,6.3954535,-2.313194,0.054825157
626,2026-05-11 16:08:24.601816,-0.25471,1.0862219,0.09299323,5.8769817,-2.0567832,-0.10277808
627,2026-05-11 16:08:24.605363,-0.25471,1.0862219,0.09299323,5.8769817,-2.0567832,-0.10277808
628,2026-05-11 16:08:24.608670,-0.25471,1.0862219,0.09299323,5.8769817,-2.0567832,-0.10277808
629,2026-05-11 16:08:24.611685,-0.24690464,1.1115892,0.09988388,5.8769817,-2.0567832,-0.10277808
630,2026-05-11 16:08:24.614497,-0.24690464,1.1115892,0.09988388,5.8769817,-2.0567832,-0.10277808
631,2026-05-11 16:08:24.618067,-0.24690464,1.1115892,0.09988388,5.8769817,-2.0567832,-0.10277808
632,2026-05-11 16:08:24.621156,-0.24690464,1.1115892,0.09988388,5.517946,-1.9570595,-0.25121832
633,2026-05-11 16:08:24.624050,-0.24690464,1.1115892,0.09988388,5.517946,-1.9570595,-0.25121832
634,2026-05-11 16:08:24.627043,-0.24690464,1.1115892,0.09988388,5.517946,-1.9570595,-0.25121832
635,2026-05-11 16:08:24.629960,-0.24690464,1.1115892,0.09988388,5.517946,-1.9570595,-0.25121832
636,2026-05-11 16:08:24.632979,-0.24934383,1.0705503,0.09878625,5.517946,-1.9570595,-0.25121832
637,2026-05-11 16:08:24.636316,-0.24934383,1.0705503,0.09878625,5.517946,-1.9570595,-0.25121832
638,2026-05-11 16:08:24.638985,-0.24934383,1.0705503,0.09878625,5.517946,-1.9570595,-0.25121832
639,2026-05-11 16:08:24.641546,-0.24934383,1.0705503,0.09878625,5.517946,-1.9570595,-0.25121832
640,2026-05-11 16:08:24.644124,-0.24934383,1.0705503,0.09878625,5.517946,-1.9570595,-0.25121832
641,2026-05-11 16:08:24.646971,-0.24934383,1.0705503,0.09878625,5.517946,-1.9570595,-0.25121832
642,2026-05-11 16:08:24.649772,-0.24934383,1.0705503,0.09878625,5.517946,-1.9570595,-0.25121832
643,2026-05-11 16:08:24.652933,-0.24934383,1.0705503,0.09878625,5.517946,-1.9570595,-0.25121832
644,2026-05-11 16:08:24.655721,-0.24934383,1.0705503,0.09878625,5.517946,-1.9570595,-0.25121832
645,2026-05-11 16:08:24.658478,-0.24934383,1.0705503,0.09878625,5.517946,-1.9570595,-0.25121832
646,2026-05-11 16:08:24.661214,-0.24934383,1.0705503,0.09878625,5.517946,-1.9570595,-0.25121832
647,2026-05-11 16:08:24.663798,-0.24934383,1.0705503,0.09878625,5.517946,-1.9570595,-0.25121832
648,2026-05-11 16:08:24.666976,-0.24934383,1.0705503,0.09878625,5.517946,-1.9570595,-0.25121832
649,2026-05-11 16:08:24.669806,-0.24934383,1.0705503,0.09878625,5.517946,-1.9570595,-0.25121832
650,2026-05-11 16:08:24.672405,-0.24934383,1.0705503,0.09878625,5.517946,-1.9570595,-0.25121832
651,2026-05-11 16:08:24.674996,-0.24934383,1.0705503,0.09878625,5.517946,-1.9570595,-0.25121832
652,2026-05-11 16:08:24.677585,-0.24934383,1.0705503,0.09878625,5.517946,-1.9570595,-0.25121832
653,2026-05-11 16:08:24.680414,-0.24934383,1.0705503,0.09878625,5.517946,-1.9570595,-0.25121832
654,2026-05-11 16:08:24.683062,-0.24934383,1.0705503,0.09878625,5.517946,-1.9570595,-0.25121832
655,2026-05-11 16:08:24.686230,-0.24934383,1.0705503,0.09878625,5.517946,-1.9570595,-0.25121832
656,2026-05-11 16:08:24.689026,-0.24934383,1.0705503,0.09878625,5.517946,-1.9570595,-0.25121832
657,2026-05-11 16:08:24.691634,-0.24934383,1.0705503,0.09878625,5.517946,-1.9570595,-0.25121832
658,2026-05-11 16:08:24.694232,-0.24934383,1.0705503,0.09878625,5.517946,-1.9570595,-0.25121832
659,2026-05-11 16:08:24.696902,-0.24934383,1.0705503,0.09878625,5.517946,-1.9570595,-0.25121832
660,2026-05-11 16:08:24.699966,-0.24934383,1.0705503,0.09878625,5.1976995,-1.9052887,-0.41615194
661,2026-05-11 16:08:24.702959,-0.2531855,1.0286576,0.08116327,5.1976995,-1.9052887,-0.41615194
662,2026-05-11 16:08:24.705622,-0.2531855,1.0286576,0.08116327,5.1976995,-1.9052887,-0.41615194
663,2026-05-11 16:08:24.708188,-0.2531855,1.0286576,0.08116327,5.1976995,-1.9052887,-0.41615194
664,2026-05-11 16:08:24.710769,-0.2531855,1.0286576,0.08116327,5.1976995,-1.9052887,-0.41615194
665,2026-05-11 16:08:24.713528,-0.2531855,1.0286576,0.08116327,5.1976995,-1.9052887,-0.41615194
666,2026-05-11 16:08:24.716155,-0.2531855,1.0286576,0.08116327,5.1976995,-1.9052887,-0.41615194
667,2026-05-11 16:08:24.719303,-0.2531855,1.0286576,0.08116327,5.1976995,-1.9052887,-0.41615194
668,2026-05-11 16:08:24.722200,-0.2531855,1.0286576,0.08116327,5.061935,-1.8472565,-0.49846604
669,2026-05-11 16:08:24.724979,-0.2531855,1.0286576,0.08116327,5.061935,-1.8472565,-0.49846604
670,2026-05-11 16:08:24.727572,-0.2531855,1.0286576,0.08116327,5.061935,-1.8472565,-0.49846604
671,2026-05-11 16:08:24.730244,-0.2531855,1.0286576,0.08116327,5.061935,-1.8472565,-0.49846604
672,2026-05-11 16:08:24.732916,-0.30270058,0.92724925,0.0023172083,5.061935,-1.8472565,-0.49846604
673,2026-05-11 16:08:24.736383,-0.30270058,0.92724925,0.0023172083,5.061935,-1.8472565,-0.49846604
674,2026-05-11 16:08:24.739194,-0.30270058,0.92724925,0.0023172083,5.061935,-1.8472565,-0.49846604
675,2026-05-11 16:08:24.741826,-0.30270058,0.92724925,0.0023172083,5.061935,-1.8472565,-0.49846604
676,2026-05-11 16:08:24.744440,-0.30270058,0.92724925,0.0023172083,5.061935,-1.8472565,-0.49846604
677,2026-05-11 16:08:24.747109,-0.30270058,0.92724925,0.0023172083,5.061935,-1.8472565,-0.49846604
678,2026-05-11 16:08:24.749755,-0.30270058,0.92724925,0.0023172083,5.061935,-1.8472565,-0.49846604
679,2026-05-11 16:08:24.753112,-0.30270058,0.92724925,0.0023172083,5.061935,-1.8472565,-0.49846604
680,2026-05-11 16:08:24.755710,-0.30270058,0.92724925,0.0023172083,5.061935,-1.8472565,-0.49846604
681,2026-05-11 16:08:24.758423,-0.30270058,0.92724925,0.0023172083,5.061935,-1.8472565,-0.49846604
682,2026-05-11 16:08:24.760999,-0.30270058,0.92724925,0.0023172083,5.061935,-1.8472565,-0.49846604
683,2026-05-11 16:08:24.785088,-0.44581872,0.47283247,-0.05793021,4.937471,-2.6624563,-0.18982637
684,2026-05-11 16:08:24.788535,-0.44581872,0.47283247,-0.05793021,4.937471,-2.6624563,-0.18982637
685,2026-05-11 16:08:24.791900,-0.44581872,0.47283247,-0.05793021,4.937471,-2.6624563,-0.18982637
686,2026-05-11 16:08:24.801284,-0.44581872,0.47283247,-0.05793021,4.937471,-2.6624563,-0.18982637
687,2026-05-11 16:08:24.804104,-0.44581872,0.47283247,-0.05793021,4.937471,-2.6624563,-0.18982637
688,2026-05-11 16:08:24.806709,-0.44581872,0.47283247,-0.05793021,4.937471,-2.6624563,-0.18982637
689,2026-05-11 16:08:24.809457,-0.44581872,0.47283247,-0.05793021,4.937471,-2.6624563,-0.18982637
690,2026-05-11 16:08:24.812060,-0.44581872,0.47283247,-0.05793021,4.937471,-2.6624563,-0.18982637
691,2026-05-11 16:08:24.814697,-0.28959006,0.46094155,-0.29196826,5.5234437,-3.4405458,0.051618114
692,2026-05-11 16:08:24.817763,-0.28959006,0.46094155,-0.29196826,5.5234437,-3.4405458,0.051618114
693,2026-05-11 16:08:24.820452,-0.28959006,0.46094155,-0.29196826,5.5234437,-3.4405458,0.051618114
694,2026-05-11 16:08:24.823022,-0.28959006,0.46094155,-0.29196826,5.5234437,-3.4405458,0.051618114
695,2026-05-11 16:08:24.825660,-0.28959006,0.46094155,-0.29196826,5.5234437,-3.4405458,0.051618114
696,2026-05-11 16:08:24.828254,-0.28959006,0.46094155,-0.29196826,5.5234437,-3.4405458,0.051618114
697,2026-05-11 16:08:24.830811,-0.28959006,0.46094155,-0.29196826,5.5234437,-3.4405458,0.051618114
698,2026-05-11 16:08:24.834152,-0.28959006,0.46094155,-0.29196826,5.5234437,-3.4405458,0.051618114
699,2026-05-11 16:08:24.836836,-0.28959006,0.46094155,-0.29196826,5.5234437,-3.4405458,0.051618114
700,2026-05-11 16:08:24.839449,-0.28959006,0.46094155,-0.29196826,5.5234437,-3.4405458,0.051618114
701,2026-05-11 16:08:24.842215,-0.28959006,0.46094155,-0.29196826,5.5234437,-3.4405458,0.051618114
702,2026-05-11 16:08:24.845022,-0.28959006,0.46094155,-0.29196826,5.5234437,-3.4405458,0.051618114
703,2026-05-11 16:08:24.847795,-0.28959006,0.46094155,-0.29196826,5.5234437,-3.4405458,0.051618114
704,2026-05-11 16:08:24.850954,-0.28959006,0.46094155,-0.29196826,5.6172113,-3.7792706,0.31306845
705,2026-05-11 16:08:24.853733,-0.28959006,0.46094155,-0.29196826,5.6172113,-3.7792706,0.31306845
706,2026-05-11 16:08:24.856323,-0.28959006,0.46094155,-0.29196826,5.6172113,-3.7792706,0.31306845
707,2026-05-11 16:08:24.859106,-0.28959006,0.46094155,-0.29196826,5.6172113,-3.7792706,0.31306845
708,2026-05-11 16:08:24.861706,-0.28959006,0.46094155,-0.29196826,5.6172113,-3.7792706,0.31306845
709,2026-05-11 16:08:24.864359,-0.28959006,0.46094155,-0.29196826,5.6172113,-3.7792706,0.31306845
710,2026-05-11 16:08:24.867176,-0.28959006,0.46094155,-0.29196826,5.6172113,-3.7792706,0.31306845
711,2026-05-11 16:08:24.870167,-0.28959006,0.46094155,-0.29196826,5.6172113,-3.7792706,0.31306845
712,2026-05-11 16:08:24.872788,-0.28959006,0.46094155,-0.29196826,5.6172113,-3.7792706,0.31306845
713,2026-05-11 16:08:24.875388,-0.28959006,0.46094155,-0.29196826,5.6172113,-3.7792706,0.31306845
714,2026-05-11 16:08:24.878283,-0.28959006,0.46094155,-0.29196826,5.6172113,-3.7792706,0.31306845
715,2026-05-11 16:08:24.880888,-0.28959006,0.46094155,-0.29196826,5.6172113,-3.7792706,0.31306845
716,2026-05-11 16:08:24.883914,-0.28959006,0.46094155,-0.29196826,5.6172113,-3.7792706,0.31306845
717,2026-05-11 16:08:24.886788,-0.28959006,0.46094155,-0.29196826,5.6172113,-3.7792706,0.31306845
718,2026-05-11 16:08:24.889510,-0.06726002,0.47722298,-0.44246486,5.491373,-3.9678752,0.40301836
719,2026-05-11 16:08:24.892071,-0.06726002,0.47722298,-0.44246486,5.491373,-3.9678752,0.40301836
720,2026-05-11 16:08:24.894855,-0.06726002,0.47722298,-0.44246486,5.491373,-3.9678752,0.40301836
721,2026-05-11 16:08:24.897416,-0.06726002,0.47722298,-0.44246486,5.491373,-3.9678752,0.40301836
722,2026-05-11 16:08:24.900467,-0.06726002,0.47722298,-0.44246486,5.491373,-3.9678752,0.40301836
723,2026-05-11 16:08:24.903290,-0.06726002,0.47722298,-0.44246486,5.491373,-3.9678752,0.40301836
724,2026-05-11 16:08:24.905926,-0.06726002,0.47722298,-0.44246486,5.491373,-3.9678752,0.40301836
725,2026-05-11 16:08:24.908533,-0.06726002,0.47722298,-0.44246486,5.491373,-3.9678752,0.40301836
726,2026-05-11 16:08:24.911171,-0.06726002,0.47722298,-0.44246486,5.491373,-3.9678752,0.40301836
727,2026-05-11 16:08:24.913907,-0.06726002,0.47722298,-0.44246486,5.491373,-3.9678752,0.40301836
728,2026-05-11 16:08:24.916673,-0.06726002,0.47722298,-0.44246486,5.491373,-3.9678752,0.40301836
729,2026-05-11 16:08:24.920163,-0.06726002,0.47722298,-0.44246486,5.491373,-3.9678752,0.40301836
730,2026-05-11 16:08:24.923078,-0.06726002,0.47722298,-0.44246486,5.491373,-3.9678752,0.40301836
731,2026-05-11 16:08:24.925864,-0.06726002,0.47722298,-0.44246486,5.491373,-3.9678752,0.40301836
732,2026-05-11 16:08:24.928749,0.16970502,0.47380814,-0.57588726,5.1007247,-3.9978075,0.34987307
733,2026-05-11 16:08:24.931409,0.16970502,0.47380814,-0.57588726,5.1007247,-3.9978075,0.34987307
734,2026-05-11 16:08:24.934164,0.16970502,0.47380814,-0.57588726,5.1007247,-3.9978075,0.34987307
735,2026-05-11 16:08:24.937361,0.16970502,0.47380814,-0.57588726,5.1007247,-3.9978075,0.34987307
736,2026-05-11 16:08:24.940064,0.16970502,0.47380814,-0.57588726,5.1007247,-3.9978075,0.34987307
737,2026-05-11 16:08:24.942817,0.16970502,0.47380814,-0.57588726,5.1007247,-3.9978075,0.34987307
738,2026-05-11 16:08:24.945403,0.16970502,0.47380814,-0.57588726,5.1007247,-3.9978075,0.34987307
739,2026-05-11 16:08:24.948171,0.16970502,0.47380814,-0.57588726,5.1007247,-3.9978075,0.34987307
740,2026-05-11 16:08:24.951199,0.16970502,0.47380814,-0.57588726,5.1007247,-3.9978075,0.34987307
741,2026-05-11 16:08:24.954032,0.16970502,0.47380814,-0.57588726,5.1007247,-3.9978075,0.34987307
742,2026-05-11 16:08:24.956610,0.16970502,0.47380814,-0.57588726,5.1007247,-3.9978075,0.34987307
743,2026-05-11 16:08:24.959462,0.16970502,0.47380814,-0.57588726,5.1007247,-3.9978075,0.34987307
744,2026-05-11 16:08:24.962155,0.2587346,0.45161173,-0.65205026,5.1007247,-3.9978075,0.34987307
745,2026-05-11 16:08:24.964752,0.2587346,0.45161173,-0.65205026,5.1007247,-3.9978075,0.34987307
746,2026-05-11 16:08:24.967709,0.2587346,0.45161173,-0.65205026,5.1007247,-3.9978075,0.34987307
747,2026-05-11 16:08:24.970403,0.2587346,0.45161173,-0.65205026,5.1007247,-3.9978075,0.34987307
748,2026-05-11 16:08:24.973128,0.2587346,0.45161173,-0.65205026,4.728097,-3.8124099,0.27183503
749,2026-05-11 16:08:24.975945,0.2587346,0.45161173,-0.65205026,4.728097,-3.8124099,0.27183503
750,2026-05-11 16:08:24.978628,0.2587346,0.45161173,-0.65205026,4.728097,-3.8124099,0.27183503
751,2026-05-11 16:08:24.981425,0.2587346,0.45161173,-0.65205026,4.728097,-3.8124099,0.27183503
752,2026-05-11 16:08:24.984532,0.2587346,0.45161173,-0.65205026,4.728097,-3.8124099,0.27183503
753,2026-05-11 16:08:24.987334,0.2587346,0.45161173,-0.65205026,4.728097,-3.8124099,0.27183503
754,2026-05-11 16:08:24.989955,0.2587346,0.45161173,-0.65205026,4.728097,-3.8124099,0.27183503
755,2026-05-11 16:08:24.992822,0.2587346,0.45161173,-0.65205026,4.728097,-3.8124099,0.27183503
756,2026-05-11 16:08:24.995467,0.2587346,0.45161173,-0.65205026,4.728097,-3.8124099,0.27183503
757,2026-05-11 16:08:24.998244,0.2587346,0.45161173,-0.65205026,4.728097,-3.8124099,0.27183503
758,2026-05-11 16:08:25.001338,0.2587346,0.45161173,-0.65205026,4.728097,-3.8124099,0.27183503
759,2026-05-11 16:08:25.004074,0.2587346,0.45161173,-0.65205026,4.728097,-3.8124099,0.27183503
760,2026-05-11 16:08:25.006643,0.2587346,0.45161173,-0.65205026,4.728097,-3.8124099,0.27183503
761,2026-05-11 16:08:25.009442,0.2587346,0.45161173,-0.65205026,4.728097,-3.8124099,0.27183503
762,2026-05-11 16:08:25.012097,0.32367742,0.34623972,-0.6544894,4.728097,-3.8124099,0.27183503
763,2026-05-11 16:08:25.014668,0.32367742,0.34623972,-0.6544894,4.728097,-3.8124099,0.27183503
764,2026-05-11 16:08:25.017735,0.32367742,0.34623972,-0.6544894,4.728097,-3.8124099,0.27183503
765,2026-05-11 16:08:25.020462,0.32367742,0.34623972,-0.6544894,4.728097,-3.8124099,0.27183503
766,2026-05-11 16:08:25.023204,0.32367742,0.34623972,-0.6544894,3.549585,-2.8156307,0.21700987
767,2026-05-11 16:08:25.025931,0.33672696,0.28898028,-0.59082717,3.549585,-2.8156307,0.21700987
768,2026-05-11 16:08:25.028645,0.33672696,0.28898028,-0.59082717,3.396258,-2.6552784,0.22983804
769,2026-05-11 16:08:25.031238,0.33672696,0.28898028,-0.59082717,3.396258,-2.6552784,0.22983804
770,2026-05-11 16:08:25.034645,0.33672696,0.28898028,-0.59082717,3.396258,-2.6552784,0.22983804
771,2026-05-11 16:08:25.037470,0.33672696,0.28898028,-0.59082717,3.396258,-2.6552784,0.22983804
772,2026-05-11 16:08:25.040185,0.33672696,0.28898028,-0.59082717,2.8904617,-1.9097174,0.47158796
773,2026-05-11 16:08:25.042897,0.33672696,0.28898028,-0.59082717,2.8904617,-1.9097174,0.47158796
774,2026-05-11 16:08:25.045484,0.33672696,0.28898028,-0.59082717,2.8904617,-1.9097174,0.47158796
775,2026-05-11 16:08:25.048125,0.33672696,0.28898028,-0.59082717,2.8904617,-1.9097174,0.47158796
776,2026-05-11 16:08:25.051004,0.33672696,0.28898028,-0.59082717,2.8904617,-1.9097174,0.47158796
777,2026-05-11 16:08:25.053690,0.33672696,0.28898028,-0.59082717,2.8904617,-1.9097174,0.47158796
778,2026-05-11 16:08:25.056252,0.33672696,0.28898028,-0.59082717,2.8904617,-1.9097174,0.47158796
779,2026-05-11 16:08:25.058853,0.3342878,0.045673396,-0.31495738,2.8904617,-1.9097174,0.47158796
780,2026-05-11 16:08:25.061673,0.32392135,-0.11043327,-0.23074517,2.8904617,-1.9097174,0.47158796
781,2026-05-11 16:08:25.064276,0.32392135,-0.11043327,-0.23074517,2.8904617,-1.9097174,0.47158796
782,2026-05-11 16:08:25.067467,0.32392135,-0.11043327,-0.23074517,2.8904617,-1.9097174,0.47158796
783,2026-05-11 16:08:25.070325,0.32392135,-0.11043327,-0.23074517,2.8904617,-1.9097174,0.47158796
784,2026-05-11 16:08:25.072965,0.32392135,-0.11043327,-0.23074517,3.2566752,-1.9126191,0.8323039
785,2026-05-11 16:08:25.075556,0.32392135,-0.11043327,-0.23074517,3.2566752,-1.9126191,0.8323039
786,2026-05-11 16:08:25.078259,0.32392135,-0.11043327,-0.23074517,3.2566752,-1.9126191,0.8323039
787,2026-05-11 16:08:25.080837,0.32392135,-0.11043327,-0.23074517,3.2566752,-1.9126191,0.8323039
788,2026-05-11 16:08:25.083824,0.32392135,-0.11043327,-0.23074517,3.2566752,-1.9126191,0.8323039
789,2026-05-11 16:08:25.086695,0.32392135,-0.11043327,-0.23074517,3.2566752,-1.9126191,0.8323039
790,2026-05-11 16:08:25.089342,0.32392135,-0.11043327,-0.23074517,3.2566752,-1.9126191,0.8323039
791,2026-05-11 16:08:25.092100,0.32392135,-0.11043327,-0.23074517,3.2566752,-1.9126191,0.8323039
792,2026-05-11 16:08:25.094892,0.31453055,-0.2151345,-0.8084618,3.492011,-2.043955,1.1088731
793,2026-05-11 16:08:25.097572,0.31453055,-0.2151345,-0.8084618,3.492011,-2.043955,1.1088731
794,2026-05-11 16:08:25.100542,0.31453055,-0.2151345,-0.8084618,3.492011,-2.043955,1.1088731
795,2026-05-11 16:08:25.103356,0.31453055,-0.2151345,-0.8084618,3.492011,-2.043955,1.1088731
796,2026-05-11 16:08:25.106066,0.31453055,-0.2151345,-0.8084618,3.492011,-2.043955,1.1088731
797,2026-05-11 16:08:25.108672,0.31453055,-0.2151345,-0.8084618,3.3470833,-1.9069686,1.8799378
798,2026-05-11 16:08:25.111408,0.31453055,-0.2151345,-0.8084618,3.3470833,-1.9069686,1.8799378
799,2026-05-11 16:08:25.114207,0.31453055,-0.2151345,-0.8084618,3.3470833,-1.9069686,1.8799378
800,2026-05-11 16:08:25.117313,0.31453055,-0.2151345,-0.8084618,3.3470833,-1.9069686,1.8799378
801,2026-05-11 16:08:25.120069,0.31453055,-0.2151345,-0.8084618,3.3470833,-1.9069686,1.8799378
802,2026-05-11 16:08:25.122673,0.31453055,-0.2151345,-0.8084618,3.3470833,-1.9069686,1.8799378
803,2026-05-11 16:08:25.125748,0.31453055,-0.2151345,-0.8084618,3.3470833,-1.9069686,1.8799378
804,2026-05-11 16:08:25.128947,0.31453055,-0.2151345,-0.8084618,3.3470833,-1.9069686,1.8799378
805,2026-05-11 16:08:25.131872,0.31453055,-0.2151345,-0.8084618,3.3470833,-1.9069686,1.8799378
806,2026-05-11 16:08:25.135579,0.31453055,-0.2151345,-0.8084618,3.3470833,-1.9069686,1.8799378
807,2026-05-11 16:08:25.138645,0.31453055,-0.2151345,-0.8084618,3.3470833,-1.9069686,1.8799378
808,2026-05-11 16:08:25.141918,0.31453055,-0.2151345,-0.8084618,3.3470833,-1.9069686,1.8799378
809,2026-05-11 16:08:25.145055,0.31453055,-0.2151345,-0.8084618,2.3486242,-1.1273518,2.7898216
810,2026-05-11 16:08:25.148855,0.90456504,-0.23690407,-1.0296332,1.5236506,-0.5187773,2.9477303
811,2026-05-11 16:08:25.152869,0.90456504,-0.23690407,-1.0296332,1.5236506,-0.5187773,2.9477303
812,2026-05-11 16:08:25.157786,0.90456504,-0.23690407,-1.0296332,1.5236506,-0.5187773,2.9477303
813,2026-05-11 16:08:25.161171,0.90456504,-0.23690407,-1.0296332,1.5236506,-0.5187773,2.9477303
814,2026-05-11 16:08:25.164815,0.90456504,-0.23690407,-1.0296332,1.5236506,-0.5187773,2.9477303
815,2026-05-11 16:08:25.169957,0.90456504,-0.23690407,-1.0296332,1.5236506,-0.5187773,2.9477303
816,2026-05-11 16:08:25.173339,1.3971547,-0.24269708,-0.9224928,1.5236506,-0.5187773,2.9477303
817,2026-05-11 16:08:25.177624,1.3971547,-0.24269708,-0.9224928,1.5236506,-0.5187773,2.9477303
818,2026-05-11 16:08:25.181217,1.3971547,-0.24269708,-0.9224928,1.5236506,-0.5187773,2.9477303
819,2026-05-11 16:08:25.187524,1.3971547,-0.24269708,-0.9224928,1.5236506,-0.5187773,2.9477303
820,2026-05-11 16:08:25.192304,1.3971547,-0.24269708,-0.9224928,1.5236506,-0.5187773,2.9477303
821,2026-05-11 16:08:25.195671,1.3971547,-0.24269708,-0.9224928,1.5236506,-0.5187773,2.9477303
822,2026-05-11 16:08:25.199091,1.3971547,-0.24269708,-0.9224928,1.5236506,-0.5187773,2.9477303
823,2026-05-11 16:08:25.202741,1.5740552,-0.27776012,-0.8040713,1.5236506,-0.5187773,2.9477303
824,2026-05-11 16:08:25.206235,1.5740552,-0.27776012,-0.8040713,1.5236506,-0.5187773,2.9477303
825,2026-05-11 16:08:25.209322,1.5740552,-0.27776012,-0.8040713,1.5236506,-0.5187773,2.9477303
826,2026-05-11 16:08:25.213664,1.5740552,-0.27776012,-0.8040713,1.1128438,-0.2640465,2.809522
827,2026-05-11 16:08:25.217888,1.5740552,-0.27776012,-0.8040713,1.1128438,-0.2640465,2.809522
828,2026-05-11 16:08:25.221070,1.5740552,-0.27776012,-0.8040713,1.1128438,-0.2640465,2.809522
829,2026-05-11 16:08:25.224134,1.5740552,-0.27776012,-0.8040713,1.1128438,-0.2640465,2.809522
830,2026-05-11 16:08:25.228089,1.6162529,-0.34373957,-0.6926014,1.1128438,-0.2640465,2.809522
831,2026-05-11 16:08:25.231173,1.6162529,-0.34373957,-0.6926014,1.1128438,-0.2640465,2.809522
832,2026-05-11 16:08:25.235853,1.6162529,-0.34373957,-0.6926014,1.031446,-0.45204028,2.54517
833,2026-05-11 16:08:25.239016,1.6162529,-0.34373957,-0.6926014,1.031446,-0.45204028,2.54517
834,2026-05-11 16:08:25.241918,1.6132649,-0.51131034,-0.63711035,1.2154691,-0.6748534,2.6122124
835,2026-05-11 16:08:25.244819,1.6132649,-0.51131034,-0.63711035,1.2154691,-0.6748534,2.6122124
836,2026-05-11 16:08:25.247532,1.6132649,-0.51131034,-0.63711035,1.2154691,-0.6748534,2.6122124
837,2026-05-11 16:08:25.250857,1.6132649,-0.51131034,-0.63711035,1.2154691,-0.6748534,2.6122124
838,2026-05-11 16:08:25.253790,1.6132649,-0.51131034,-0.63711035,1.2154691,-0.6748534,2.6122124
839,2026-05-11 16:08:25.256588,1.8037637,-0.4012429,-0.7387626,1.3240504,-0.7816021,2.7574458
840,2026-05-11 16:08:25.259244,1.8037637,-0.4012429,-0.7387626,1.3240504,-0.7816021,2.7574458
841,2026-05-11 16:08:25.262039,1.8037637,-0.4012429,-0.7387626,1.3240504,-0.7816021,2.7574458
842,2026-05-11 16:08:25.264674,1.8037637,-0.4012429,-0.7387626,1.3240504,-0.7816021,2.7574458
843,2026-05-11 16:08:25.267794,1.8037637,-0.4012429,-0.7387626,1.3240504,-0.7816021,2.7574458
844,2026-05-11 16:08:25.270609,1.8037637,-0.4012429,-0.7387626,1.3240504,-0.7816021,2.7574458
845,2026-05-11 16:08:25.273240,1.8037637,-0.4012429,-0.7387626,1.3240504,-0.7816021,2.7574458
846,2026-05-11 16:08:25.276071,1.8037637,-0.4012429,-0.7387626,1.3240504,-0.7816021,2.7574458
847,2026-05-11 16:08:25.278691,1.8037637,-0.4012429,-0.7387626,1.3240504,-0.7816021,2.7574458
848,2026-05-11 16:08:25.281653,1.8037637,-0.4012429,-0.7387626,1.3240504,-0.7816021,2.7574458
849,2026-05-11 16:08:25.284791,1.8037637,-0.4012429,-0.7387626,1.3634512,-0.713796,2.8814514
850,2026-05-11 16:08:25.287565,1.8037637,-0.4012429,-0.7387626,1.3634512,-0.713796,2.8814514
851,2026-05-11 16:08:25.290302,1.8037637,-0.4012429,-0.7387626,1.3634512,-0.713796,2.8814514
852,2026-05-11 16:08:25.292918,1.8037637,-0.4012429,-0.7387626,1.3634512,-0.713796,2.8814514
853,2026-05-11 16:08:25.295758,1.8037637,-0.4012429,-0.7387626,1.3634512,-0.713796,2.8814514
854,2026-05-11 16:08:25.298418,1.8037637,-0.4012429,-0.7387626,1.3634512,-0.713796,2.8814514
855,2026-05-11 16:08:25.301400,1.8037637,-0.4012429,-0.7387626,1.3634512,-0.713796,2.8814514
856,2026-05-11 16:08:25.304106,1.8037637,-0.4012429,-0.7387626,1.3634512,-0.713796,2.8814514
857,2026-05-11 16:08:25.306901,1.8037637,-0.4012429,-0.7387626,1.3634512,-0.713796,2.8814514
858,2026-05-11 16:08:25.309669,1.8037637,-0.4012429,-0.7387626,1.270447,-0.5093089,2.8750372
859,2026-05-11 16:08:25.312319,1.8037637,-0.4012429,-0.7387626,1.270447,-0.5093089,2.8750372
860,2026-05-11 16:08:25.314965,1.8037637,-0.4012429,-0.7387626,1.270447,-0.5093089,2.8750372
861,2026-05-11 16:08:25.318070,1.8037637,-0.4012429,-0.7387626,1.270447,-0.5093089,2.8750372
862,2026-05-11 16:08:25.320807,1.8037637,-0.4012429,-0.7387626,1.270447,-0.5093089,2.8750372
863,2026-05-11 16:08:25.323577,1.8037637,-0.4012429,-0.7387626,1.270447,-0.5093089,2.8750372
864,2026-05-11 16:08:25.326231,1.8037637,-0.4012429,-0.7387626,1.270447,-0.5093089,2.8750372
865,2026-05-11 16:08:25.328803,1.8037637,-0.4012429,-0.7387626,1.270447,-0.5093089,2.8750372
866,2026-05-11 16:08:25.331560,1.8037637,-0.4012429,-0.7387626,1.270447,-0.5093089,2.8750372
867,2026-05-11 16:08:25.334718,1.8037637,-0.4012429,-0.7387626,1.270447,-0.5093089,2.8750372
868,2026-05-11 16:08:25.337509,1.8037637,-0.4012429,-0.7387626,1.270447,-0.5093089,2.8750372
869,2026-05-11 16:08:25.340110,1.8037637,-0.4012429,-0.7387626,1.270447,-0.5093089,2.8750372
870,2026-05-11 16:08:25.342891,1.8037637,-0.4012429,-0.7387626,1.270447,-0.5093089,2.8750372
871,2026-05-11 16:08:25.345512,1.8037637,-0.4012429,-0.7387626,1.270447,-0.5093089,2.8750372
872,2026-05-11 16:08:25.348215,1.8037637,-0.4012429,-0.7387626,1.270447,-0.5093089,2.8750372
873,2026-05-11 16:08:25.351397,1.8037637,-0.4012429,-0.7387626,1.270447,-0.5093089,2.8750372
874,2026-05-11 16:08:25.354143,1.8037637,-0.4012429,-0.7387626,1.270447,-0.5093089,2.8750372
875,2026-05-11 16:08:25.356706,1.8037637,-0.4012429,-0.7387626,1.270447,-0.5093089,2.8750372
876,2026-05-11 16:08:25.359504,1.8037637,-0.4012429,-0.7387626,1.270447,-0.5093089,2.8750372
877,2026-05-11 16:08:25.362348,1.8037637,-0.4012429,-0.7387626,1.270447,-0.5093089,2.8750372
878,2026-05-11 16:08:25.364943,1.8037637,-0.4012429,-0.7387626,1.270447,-0.5093089,2.8750372
879,2026-05-11 16:08:25.368027,1.8037637,-0.4012429,-0.7387626,1.270447,-0.5093089,2.8750372
880,2026-05-11 16:08:25.370855,1.8037637,-0.4012429,-0.7387626,1.270447,-0.5093089,2.8750372
881,2026-05-11 16:08:25.373417,1.8037637,-0.4012429,-0.7387626,1.270447,-0.5093089,2.8750372
882,2026-05-11 16:08:25.376019,1.9361495,-0.3144086,-0.8139499,1.270447,-0.5093089,2.8750372
883,2026-05-11 16:08:25.378764,1.9361495,-0.3144086,-0.8139499,1.270447,-0.5093089,2.8750372
884,2026-05-11 16:08:25.381508,1.9361495,-0.3144086,-0.8139499,1.270447,-0.5093089,2.8750372
885,2026-05-11 16:08:25.384513,1.9361495,-0.3144086,-0.8139499,1.270447,-0.5093089,2.8750372
886,2026-05-11 16:08:25.387364,1.9361495,-0.3144086,-0.8139499,1.270447,-0.5093089,2.8750372
887,2026-05-11 16:08:25.390092,1.9361495,-0.3144086,-0.8139499,1.270447,-0.5093089,2.8750372
888,2026-05-11 16:08:25.392672,1.9361495,-0.3144086,-0.8139499,1.270447,-0.5093089,2.8750372
889,2026-05-11 16:08:25.395416,1.9361495,-0.3144086,-0.8139499,1.270447,-0.5093089,2.8750372
890,2026-05-11 16:08:25.397986,1.9361495,-0.3144086,-0.8139499,1.270447,-0.5093089,2.8750372
891,2026-05-11 16:08:25.400855,1.9361495,-0.3144086,-0.8139499,1.270447,-0.5093089,2.8750372
892,2026-05-11 16:08:25.403773,1.9361495,-0.3144086,-0.8139499,1.270447,-0.5093089,2.8750372
893,2026-05-11 16:08:25.406472,1.9361495,-0.3144086,-0.8139499,1.270447,-0.5093089,2.8750372
894,2026-05-11 16:08:25.409102,1.9361495,-0.3144086,-0.8139499,1.270447,-0.5093089,2.8750372
895,2026-05-11 16:08:25.411715,1.9361495,-0.3144086,-0.8139499,1.270447,-0.5093089,2.8750372
896,2026-05-11 16:08:25.414270,1.9361495,-0.3144086,-0.8139499,1.270447,-0.5093089,2.8750372
897,2026-05-11 16:08:25.417406,1.9361495,-0.3144086,-0.8139499,1.270447,-0.5093089,2.8750372
898,2026-05-11 16:08:25.420098,1.9361495,-0.3144086,-0.8139499,1.270447,-0.5093089,2.8750372
899,2026-05-11 16:08:25.422816,1.9361495,-0.3144086,-0.8139499,1.270447,-0.5093089,2.8750372
900,2026-05-11 16:08:25.425704,1.9361495,-0.3144086,-0.8139499,1.270447,-0.5093089,2.8750372
901,2026-05-11 16:08:25.428361,1.9361495,-0.3144086,-0.8139499,1.270447,-0.5093089,2.8750372
902,2026-05-11 16:08:25.431093,2.0967686,-0.18671821,-0.8713923,1.270447,-0.5093089,2.8750372
903,2026-05-11 16:08:25.434166,2.0967686,-0.18671821,-0.8713923,1.0015136,-0.13469578,2.7035367
904,2026-05-11 16:08:25.436967,2.0967686,-0.18671821,-0.8713923,1.0015136,-0.13469578,2.7035367
905,2026-05-11 16:08:25.439555,2.0967686,-0.18671821,-0.8713923,1.0015136,-0.13469578,2.7035367
906,2026-05-11 16:08:25.442132,2.0967686,-0.18671821,-0.8713923,1.0015136,-0.13469578,2.7035367
907,2026-05-11 16:08:25.444922,2.0967686,-0.18671821,-0.8713923,1.0015136,-0.13469578,2.7035367
908,2026-05-11 16:08:25.447578,2.0967686,-0.18671821,-0.8713923,1.0015136,-0.13469578,2.7035367
909,2026-05-11 16:08:25.450575,2.0967686,-0.18671821,-0.8713923,1.0015136,-0.13469578,2.7035367
910,2026-05-11 16:08:25.453409,2.0967686,-0.18671821,-0.8713923,1.0015136,-0.13469578,2.7035367
911,2026-05-11 16:08:25.456124,2.2006161,-0.08165111,-0.86437976,0.31764993,0.7583892,1.7684549
912,2026-05-11 16:08:25.458702,2.2006161,-0.08165111,-0.86437976,0.31764993,0.7583892,1.7684549
913,2026-05-11 16:08:25.461453,2.2006161,-0.08165111,-0.86437976,0.31764993,0.7583892,1.7684549
914,2026-05-11 16:08:25.464031,2.2006161,-0.08165111,-0.86437976,0.31764993,0.7583892,1.7684549
915,2026-05-11 16:08:25.467012,2.2006161,-0.08165111,-0.86437976,0.31764993,0.7583892,1.7684549
916,2026-05-11 16:08:25.469800,2.2006161,-0.08165111,-0.86437976,0.31764993,0.7583892,1.7684549
917,2026-05-11 16:08:25.472395,2.2006161,-0.08165111,-0.86437976,0.31764993,0.7583892,1.7684549
918,2026-05-11 16:08:25.474994,2.2006161,-0.08165111,-0.86437976,0.31764993,0.7583892,1.7684549
919,2026-05-11 16:08:25.477644,2.2006161,-0.08165111,-0.86437976,0.31764993,0.7583892,1.7684549
920,2026-05-11 16:08:25.480213,2.2006161,-0.08165111,-0.86437976,0.31764993,0.7583892,1.7684549
921,2026-05-11 16:08:25.483185,2.2006161,-0.08165111,-0.86437976,0.31764993,0.7583892,1.7684549
922,2026-05-11 16:08:25.486443,2.285499,0.03298973,-0.89047885,0.31764993,0.7583892,1.7684549
923,2026-05-11 16:08:25.489218,2.285499,0.03298973,-0.89047885,0.31764993,0.7583892,1.7684549
924,2026-05-11 16:08:25.491823,2.285499,0.03298973,-0.89047885,0.31764993,0.7583892,1.7684549
925,2026-05-11 16:08:25.494527,2.285499,0.03298973,-0.89047885,0.31764993,0.7583892,1.7684549
926,2026-05-11 16:08:25.497130,2.285499,0.03298973,-0.89047885,0.31764993,0.7583892,1.7684549
927,2026-05-11 16:08:25.499869,2.285499,0.03298973,-0.89047885,0.31764993,0.7583892,1.7684549
928,2026-05-11 16:08:25.502834,2.285499,0.03298973,-0.89047885,0.31764993,0.7583892,1.7684549
929,2026-05-11 16:08:25.505685,2.285499,0.03298973,-0.89047885,0.31764993,0.7583892,1.7684549
930,2026-05-11 16:08:25.508332,2.285499,0.03298973,-0.89047885,0.31764993,0.7583892,1.7684549
931,2026-05-11 16:08:25.510942,2.285499,0.03298973,-0.89047885,0.31764993,0.7583892,1.7684549
932,2026-05-11 16:08:25.513461,2.285499,0.03298973,-0.89047885,0.31764993,0.7583892,1.7684549
933,2026-05-11 16:08:25.516293,2.285499,0.03298973,-0.89047885,0.31764993,0.7583892,1.7684549
934,2026-05-11 16:08:25.519316,2.285499,0.03298973,-0.89047885,0.31764993,0.7583892,1.7684549
935,2026-05-11 16:08:25.522048,2.2364109,0.06591848,-0.96895903,-0.12064589,0.91629785,1.1334605
936,2026-05-11 16:08:25.524675,2.2364109,0.06591848,-0.96895903,-0.12064589,0.91629785,1.1334605
937,2026-05-11 16:08:25.527237,2.2364109,0.06591848,-0.96895903,-0.12064589,0.91629785,1.1334605
938,2026-05-11 16:08:25.529895,2.2364109,0.06591848,-0.96895903,-0.12064589,0.91629785,1.1334605
939,2026-05-11 16:08:25.532470,2.2364109,0.06591848,-0.96895903,-0.12064589,0.91629785,1.1334605
940,2026-05-11 16:08:25.535734,2.2364109,0.06591848,-0.96895903,-0.12064589,0.91629785,1.1334605
941,2026-05-11 16:08:25.538567,2.2364109,0.06591848,-0.96895903,-0.12064589,0.91629785,1.1334605
942,2026-05-11 16:08:25.541256,2.2364109,0.06591848,-0.96895903,-0.12064589,0.91629785,1.1334605
943,2026-05-11 16:08:25.543988,2.2364109,0.06591848,-0.96895903,-0.12064589,0.91629785,1.1334605
944,2026-05-11 16:08:25.546594,2.2364109,0.06591848,-0.96895903,-0.12064589,0.91629785,1.1334605
945,2026-05-11 16:08:25.549396,2.2364109,0.06591848,-0.96895903,-0.12064589,0.91629785,1.1334605
946,2026-05-11 16:08:25.552329,2.2364109,0.06591848,-0.96895903,-0.12064589,0.91629785,1.1334605
947,2026-05-11 16:08:25.555021,2.2364109,0.06591848,-0.96895903,-0.12064589,0.91629785,1.1334605
948,2026-05-11 16:08:25.557853,2.2364109,0.06591848,-0.96895903,-0.12064589,0.91629785,1.1334605
949,2026-05-11 16:08:25.560539,2.2364109,0.06591848,-0.96895903,-0.12064589,0.91629785,1.1334605
950,2026-05-11 16:08:25.563334,2.151467,0.09707884,-0.9711542,-0.12064589,0.91629785,1.1334605
951,2026-05-11 16:08:25.565976,2.151467,0.09707884,-0.9711542,-0.12064589,0.91629785,1.1334605
952,2026-05-11 16:08:25.569474,2.151467,0.09707884,-0.9711542,-0.12064589,0.91629785,1.1334605
953,2026-05-11 16:08:25.572308,2.151467,0.09707884,-0.9711542,-0.12064589,0.91629785,1.1334605
954,2026-05-11 16:08:25.574996,2.151467,0.09707884,-0.9711542,-0.5684101,1.0022771,0.6088799
955,2026-05-11 16:08:25.577586,2.151467,0.09707884,-0.9711542,-0.5684101,1.0022771,0.6088799
956,2026-05-11 16:08:25.580303,2.151467,0.09707884,-0.9711542,-0.5684101,1.0022771,0.6088799
957,2026-05-11 16:08:25.582922,2.151467,0.09707884,-0.9711542,-0.5684101,1.0022771,0.6088799
958,2026-05-11 16:08:25.586131,2.151467,0.09707884,-0.9711542,-0.5684101,1.0022771,0.6088799
959,2026-05-11 16:08:25.588854,2.151467,0.09707884,-0.9711542,-0.5684101,1.0022771,0.6088799
960,2026-05-11 16:08:25.591424,2.151467,0.09707884,-0.9711542,-0.5684101,1.0022771,0.6088799
961,2026-05-11 16:08:25.594071,2.151467,0.09707884,-0.9711542,-0.5684101,1.0022771,0.6088799
962,2026-05-11 16:08:25.596857,2.0599983,0.10726235,-0.86633104,-1.127199,1.1304061,-0.06291912
963,2026-05-11 16:08:25.599673,2.0599983,0.10726235,-0.86633104,-1.127199,1.1304061,-0.06291912
964,2026-05-11 16:08:25.602775,2.0599983,0.10726235,-0.86633104,-1.127199,1.1304061,-0.06291912
965,2026-05-11 16:08:25.605538,2.0599983,0.10726235,-0.86633104,-1.127199,1.1304061,-0.06291912
966,2026-05-11 16:08:25.608205,2.0599983,0.10726235,-0.86633104,-1.127199,1.1304061,-0.06291912
967,2026-05-11 16:08:25.610817,2.0599983,0.10726235,-0.86633104,-1.127199,1.1304061,-0.06291912
968,2026-05-11 16:08:25.613645,2.0599983,0.10726235,-0.86633104,-1.4503468,1.2869403,-0.5870415
969,2026-05-11 16:08:25.616415,1.9812131,-0.0023172083,-0.7476656,-1.4503468,1.2869403,-0.5870415
970,2026-05-11 16:08:25.619641,1.9812131,-0.0023172083,-0.7476656,-1.4503468,1.2869403,-0.5870415
971,2026-05-11 16:08:25.622250,1.9812131,-0.0023172083,-0.7476656,-1.4503468,1.2869403,-0.5870415
972,2026-05-11 16:08:25.625082,1.9812131,-0.0023172083,-0.7476656,-1.7730364,1.5221235,-1.2861768
973,2026-05-11 16:08:25.627718,1.9812131,-0.0023172083,-0.7476656,-1.7730364,1.5221235,-1.2861768
974,2026-05-11 16:08:25.630433,1.9812131,-0.0023172083,-0.7476656,-1.7730364,1.5221235,-1.2861768
975,2026-05-11 16:08:25.633027,1.9812131,-0.0023172083,-0.7476656,-1.7730364,1.5221235,-1.2861768
976,2026-05-11 16:08:25.636132,1.9812131,-0.0023172083,-0.7476656,-1.7730364,1.5221235,-1.2861768
977,2026-05-11 16:08:25.638892,1.9812131,-0.0023172083,-0.7476656,-1.7730364,1.5221235,-1.2861768
978,2026-05-11 16:08:25.641485,1.9812131,-0.0023172083,-0.7476656,-1.7730364,1.5221235,-1.2861768
979,2026-05-11 16:08:25.644078,1.9812131,-0.0023172083,-0.7476656,-1.7730364,1.5221235,-1.2861768
980,2026-05-11 16:08:25.646755,1.9812131,-0.0023172083,-0.7476656,-1.7730364,1.5221235,-1.2861768
981,2026-05-11 16:08:25.649583,1.8845003,-0.07823627,-0.6864425,-1.7730364,1.5221235,-1.2861768
982,2026-05-11 16:08:25.652904,1.8845003,-0.07823627,-0.6864425,-1.7730364,1.5221235,-1.2861768
983,2026-05-11 16:08:25.656002,1.779982,-0.2063535,-0.6297319,-1.7730364,1.5221235,-1.2861768
984,2026-05-11 16:08:25.658807,1.779982,-0.2063535,-0.6297319,-1.7730364,1.5221235,-1.2861768
985,2026-05-11 16:08:25.661585,1.779982,-0.2063535,-0.6297319,-1.831374,1.5825992,-1.7117971
986,2026-05-11 16:08:25.664259,1.779982,-0.2063535,-0.6297319,-1.831374,1.5825992,-1.7117971
987,2026-05-11 16:08:25.667271,1.779982,-0.2063535,-0.6297319,-1.831374,1.5825992,-1.7117971
988,2026-05-11 16:08:25.670579,1.779982,-0.2063535,-0.6297319,-1.831374,1.5825992,-1.7117971
989,2026-05-11 16:08:25.673381,1.779982,-0.2063535,-0.6297319,-1.831374,1.5825992,-1.7117971
990,2026-05-11 16:08:25.676251,1.779982,-0.2063535,-0.6297319,-1.762499,1.4430164,-2.1297817
991,2026-05-11 16:08:25.679245,1.779982,-0.2063535,-0.6297319,-1.762499,1.4430164,-2.1297817
992,2026-05-11 16:08:25.681915,1.779982,-0.2063535,-0.6297319,-1.762499,1.4430164,-2.1297817
993,2026-05-11 16:08:25.684827,1.779982,-0.2063535,-0.6297319,-1.762499,1.4430164,-2.1297817
994,2026-05-11 16:08:25.687502,1.779982,-0.2063535,-0.6297319,-1.762499,1.4430164,-2.1297817
995,2026-05-11 16:08:25.690042,1.779982,-0.2063535,-0.6297319,-1.762499,1.4430164,-2.1297817
996,2026-05-11 16:08:25.692807,1.4098383,-0.43837923,-0.45752668,-1.762499,1.4430164,-2.1297817
997,2026-05-11 16:08:25.695472,1.4098383,-0.43837923,-0.45752668,-1.762499,1.4430164,-2.1297817
998,2026-05-11 16:08:25.698035,1.4098383,-0.43837923,-0.45752668,-1.762499,1.4430164,-2.1297817
999,2026-05-11 16:08:25.700974,1.4098383,-0.43837923,-0.45752668,-1.762499,1.4430164,-2.1297817
1000,2026-05-11 16:08:25.703783,1.4098383,-0.43837923,-0.45752668,-1.762499,1.4430164,-2.1297817
1001,2026-05-11 16:08:25.706377,1.4098383,-0.43837923,-0.45752668,-1.762499,1.4430164,-2.1297817
1002,2026-05-11 16:08:25.708992,1.4098383,-0.43837923,-0.45752668,-1.762499,1.4430164,-2.1297817
1003,2026-05-11 16:08:25.711657,1.4098383,-0.43837923,-0.45752668,-1.762499,1.4430164,-2.1297817
1004,2026-05-11 16:08:25.714202,1.4098383,-0.43837923,-0.45752668,-1.762499,1.4430164,-2.1297817
1005,2026-05-11 16:08:25.717427,1.4098383,-0.43837923,-0.45752668,-1.762499,1.4430164,-2.1297817
1006,2026-05-11 16:08:25.720379,1.5959468,-0.33361703,-0.5665574,-1.762499,1.4430164,-2.1297817
1007,2026-05-11 16:08:25.723045,1.5959468,-0.33361703,-0.5665574,-1.762499,1.4430164,-2.1297817
1008,2026-05-11 16:08:25.725627,1.5959468,-0.33361703,-0.5665574,-1.762499,1.4430164,-2.1297817
1009,2026-05-11 16:08:25.728409,1.5959468,-0.33361703,-0.5665574,-1.762499,1.4430164,-2.1297817
1010,2026-05-11 16:08:25.731029,1.5959468,-0.33361703,-0.5665574,-1.762499,1.4430164,-2.1297817
1011,2026-05-11 16:08:25.733999,1.5959468,-0.33361703,-0.5665574,-1.762499,1.4430164,-2.1297817
1012,2026-05-11 16:08:25.737118,1.5959468,-0.33361703,-0.5665574,-1.762499,1.4430164,-2.1297817
1013,2026-05-11 16:08:25.739702,1.5959468,-0.33361703,-0.5665574,-1.762499,1.4430164,-2.1297817
1014,2026-05-11 16:08:25.742485,1.5959468,-0.33361703,-0.5665574,-1.5435038,1.2675453,-2.3443482
1015,2026-05-11 16:08:25.745230,1.2794648,-0.48941877,-0.39441326,-1.2454015,1.1391109,-2.3683245
1016,2026-05-11 16:08:25.747964,1.2794648,-0.48941877,-0.39441326,-1.2454015,1.1391109,-2.3683245
1017,2026-05-11 16:08:25.750865,1.2794648,-0.48941877,-0.39441326,-1.2454015,1.1391109,-2.3683245
1018,2026-05-11 16:08:25.753774,1.2794648,-0.48941877,-0.39441326,-1.2454015,1.1391109,-2.3683245
1019,2026-05-11 16:08:25.756534,1.2794648,-0.48941877,-0.39441326,-1.2454015,1.1391109,-2.3683245
1020,2026-05-11 16:08:25.759325,1.2794648,-0.48941877,-0.39441326,-1.2454015,1.1391109,-2.3683245
1021,2026-05-11 16:08:25.761953,1.2794648,-0.48941877,-0.39441326,-1.2454015,1.1391109,-2.3683245
1022,2026-05-11 16:08:25.764783,1.2794648,-0.48941877,-0.39441326,-1.2454015,1.1391109,-2.3683245
1023,2026-05-11 16:08:25.767958,1.2794648,-0.48941877,-0.39441326,-1.2454015,1.1391109,-2.3683245
1024,2026-05-11 16:08:25.770744,1.2794648,-0.48941877,-0.39441326,-1.2454015,1.1391109,-2.3683245
1025,2026-05-11 16:08:25.773347,1.2794648,-0.48941877,-0.39441326,-1.2454015,1.1391109,-2.3683245
1026,2026-05-11 16:08:25.776154,1.2794648,-0.48941877,-0.39441326,-1.2454015,1.1391109,-2.3683245
1027,2026-05-11 16:08:25.778808,1.2794648,-0.48941877,-0.39441326,-1.2454015,1.1391109,-2.3683245
1028,2026-05-11 16:08:25.781529,1.2794648,-0.48941877,-0.39441326,-1.2454015,1.1391109,-2.3683245
1029,2026-05-11 16:08:25.784536,1.2794648,-0.48941877,-0.39441326,-1.2454015,1.1391109,-2.3683245
1030,2026-05-11 16:08:25.787414,1.2794648,-0.48941877,-0.39441326,-0.77396625,0.97234476,-2.2487476
1031,2026-05-11 16:08:25.790153,1.1846423,-0.41417053,-0.57277733,-0.3036,0.8002335,-2.0890064
1032,2026-05-11 16:08:25.792765,1.1846423,-0.41417053,-0.57277733,-0.3036,0.8002335,-2.0890064
1033,2026-05-11 16:08:25.795697,1.1846423,-0.41417053,-0.57277733,-0.3036,0.8002335,-2.0890064
1034,2026-05-11 16:08:25.798334,1.1846423,-0.41417053,-0.57277733,-0.3036,0.8002335,-2.0890064
1035,2026-05-11 16:08:25.801361,1.1846423,-0.41417053,-0.57277733,-0.3036,0.8002335,-2.0890064
1036,2026-05-11 16:08:25.804049,1.1846423,-0.41417053,-0.57277733,-0.3036,0.8002335,-2.0890064
1037,2026-05-11 16:08:25.806640,1.1846423,-0.41417053,-0.57277733,-0.3036,0.8002335,-2.0890064
1038,2026-05-11 16:08:25.809549,1.1846423,-0.41417053,-0.57277733,-0.3036,0.8002335,-2.0890064
1039,2026-05-11 16:08:25.812221,1.1846423,-0.41417053,-0.57277733,-0.3036,0.8002335,-2.0890064
1040,2026-05-11 16:08:25.815092,1.1846423,-0.41417053,-0.57277733,-0.3036,0.8002335,-2.0890064
1041,2026-05-11 16:08:25.818182,1.1846423,-0.41417053,-0.57277733,-0.3036,0.8002335,-2.0890064
1042,2026-05-11 16:08:25.833722,1.1846423,-0.41417053,-0.57277733,-0.002443461,0.65393126,-2.0178406
1043,2026-05-11 16:08:25.836949,1.1846423,-0.41417053,-0.57277733,-0.002443461,0.65393126,-2.0178406
1044,2026-05-11 16:08:25.846956,1.1846423,-0.41417053,-0.57277733,-0.002443461,0.65393126,-2.0178406
1045,2026-05-11 16:08:25.850206,1.1846423,-0.41417053,-0.57277733,-0.002443461,0.65393126,-2.0178406
1046,2026-05-11 16:08:25.858594,1.1846423,-0.41417053,-0.57277733,-0.002443461,0.65393126,-2.0178406
1047,2026-05-11 16:08:25.861447,1.1846423,-0.41417053,-0.57277733,-0.002443461,0.65393126,-2.0178406
1048,2026-05-11 16:08:25.864077,1.1846423,-0.41417053,-0.57277733,-0.002443461,0.65393126,-2.0178406
1049,2026-05-11 16:08:25.867170,1.1846423,-0.41417053,-0.57277733,-0.002443461,0.65393126,-2.0178406
1050,2026-05-11 16:08:25.870091,1.1846423,-0.41417053,-0.57277733,-0.002443461,0.65393126,-2.0178406
1051,2026-05-11 16:08:25.872738,1.1846423,-0.41417053,-0.57277733,-0.002443461,0.65393126,-2.0178406
1052,2026-05-11 16:08:25.875333,1.1846423,-0.41417053,-0.57277733,-0.002443461,0.65393126,-2.0178406
1053,2026-05-11 16:08:25.878081,1.1846423,-0.41417053,-0.57277733,-0.002443461,0.65393126,-2.0178406
1054,2026-05-11 16:08:25.880663,1.1846423,-0.41417053,-0.57277733,-0.002443461,0.65393126,-2.0178406
1055,2026-05-11 16:08:25.883750,1.1846423,-0.41417053,-0.57277733,-0.002443461,0.65393126,-2.0178406
1056,2026-05-11 16:08:25.886439,1.1846423,-0.41417053,-0.57277733,-0.002443461,0.65393126,-2.0178406
1057,2026-05-11 16:08:25.889028,1.1846423,-0.41417053,-0.57277733,-0.002443461,0.65393126,-2.0178406
1058,2026-05-11 16:08:25.891626,1.1846423,-0.41417053,-0.57277733,-0.002443461,0.65393126,-2.0178406
1059,2026-05-11 16:08:25.894568,1.1846423,-0.41417053,-0.57277733,0.19746219,0.43692136,-1.8958203
1060,2026-05-11 16:08:25.897257,1.1846423,-0.41417053,-0.57277733,0.19746219,0.43692136,-1.8958203
1061,2026-05-11 16:08:25.900364,1.1537259,-0.33026317,-0.723152,0.19746219,0.43692136,-1.8958203
1062,2026-05-11 16:08:25.903181,1.1537259,-0.33026317,-0.723152,0.19746219,0.43692136,-1.8958203
1063,2026-05-11 16:08:25.905802,1.1537259,-0.33026317,-0.723152,0.19746219,0.43692136,-1.8958203
1064,2026-05-11 16:08:25.908514,1.1537259,-0.33026317,-0.723152,0.19746219,0.43692136,-1.8958203
1065,2026-05-11 16:08:25.911261,1.1646411,-0.25623447,-0.80663246,-0.0047342055,0.2875648,-1.7282904
1066,2026-05-11 16:08:25.913969,1.1646411,-0.25623447,-0.80663246,-0.0047342055,0.2875648,-1.7282904
1067,2026-05-11 16:08:25.916711,1.1646411,-0.25623447,-0.80663246,-0.0047342055,0.2875648,-1.7282904
1068,2026-05-11 16:08:25.919842,1.1646411,-0.25623447,-0.80663246,-0.0047342055,0.2875648,-1.7282904
1069,2026-05-11 16:08:25.922463,1.1646411,-0.25623447,-0.80663246,-0.0047342055,0.2875648,-1.7282904
1070,2026-05-11 16:08:25.925077,1.1646411,-0.25623447,-0.80663246,-0.0047342055,0.2875648,-1.7282904
1071,2026-05-11 16:08:25.927718,1.1646411,-0.25623447,-0.80663246,-0.0047342055,0.2875648,-1.7282904
1072,2026-05-11 16:08:25.930319,1.1646411,-0.25623447,-0.80663246,-0.0047342055,0.2875648,-1.7282904
1073,2026-05-11 16:08:25.932886,1.1646411,-0.25623447,-0.80663246,-0.0047342055,0.2875648,-1.7282904
1074,2026-05-11 16:08:25.936168,1.1646411,-0.25623447,-0.80663246,-0.0047342055,0.2875648,-1.7282904
1075,2026-05-11 16:08:25.938904,1.1646411,-0.25623447,-0.80663246,-0.0047342055,0.2875648,-1.7282904
1076,2026-05-11 16:08:25.941533,1.1646411,-0.25623447,-0.80663246,-0.0047342055,0.2875648,-1.7282904
1077,2026-05-11 16:08:25.944193,1.1646411,-0.25623447,-0.80663246,-0.0047342055,0.2875648,-1.7282904
1078,2026-05-11 16:08:25.946830,1.1646411,-0.25623447,-0.80663246,-0.0047342055,0.2875648,-1.7282904
1079,2026-05-11 16:08:25.949504,1.1646411,-0.25623447,-0.80663246,-0.0047342055,0.2875648,-1.7282904
1080,2026-05-11 16:08:25.952685,1.1646411,-0.25623447,-0.80663246,-0.0047342055,0.2875648,-1.7282904
1081,2026-05-11 16:08:25.955430,1.1646411,-0.25623447,-0.80663246,-0.0047342055,0.2875648,-1.7282904
1082,2026-05-11 16:08:25.958299,1.1646411,-0.25623447,-0.80663246,-0.0047342055,0.2875648,-1.7282904
1083,2026-05-11 16:08:25.961035,1.1646411,-0.25623447,-0.80663246,-0.0047342055,0.2875648,-1.7282904
1084,2026-05-11 16:08:25.963683,1.1646411,-0.25623447,-0.80663246,-0.0047342055,0.2875648,-1.7282904
1085,2026-05-11 16:08:25.966364,1.1646411,-0.25623447,-0.80663246,-0.0047342055,0.2875648,-1.7282904
1086,2026-05-11 16:08:25.969461,1.1646411,-0.25623447,-0.80663246,-0.0047342055,0.2875648,-1.7282904
1087,2026-05-11 16:08:25.972083,1.1646411,-0.25623447,-0.80663246,-0.0047342055,0.2875648,-1.7282904
1088,2026-05-11 16:08:25.974842,1.1646411,-0.25623447,-0.80663246,-0.0047342055,0.2875648,-1.7282904
1089,2026-05-11 16:08:25.977578,1.1646411,-0.25623447,-0.80663246,-0.0047342055,0.2875648,-1.7282904
1090,2026-05-11 16:08:25.980280,1.1895206,-0.14805742,-0.82962155,-0.2835942,0.36896262,-1.7318029
1091,2026-05-11 16:08:25.983072,1.1557992,-0.022928167,-0.8410857,-0.2835942,0.36896262,-1.7318029
1092,2026-05-11 16:08:25.986476,1.1557992,-0.022928167,-0.8410857,-0.2835942,0.36896262,-1.7318029
1093,2026-05-11 16:08:25.989188,1.1557992,-0.022928167,-0.8410857,-0.2835942,0.36896262,-1.7318029
1094,2026-05-11 16:08:25.992012,1.1190897,0.04170975,-0.8113888,-0.2835942,0.36896262,-1.7318029
1095,2026-05-11 16:08:25.994668,1.1190897,0.04170975,-0.8113888,-0.2835942,0.36896262,-1.7318029
1096,2026-05-11 16:08:25.997300,1.1190897,0.04170975,-0.8113888,-0.2835942,0.36896262,-1.7318029
1097,2026-05-11 16:08:26.000449,1.1190897,0.04170975,-0.8113888,-0.2835942,0.36896262,-1.7318029
1098,2026-05-11 16:08:26.003551,1.1190897,0.04170975,-0.8113888,-0.2835942,0.36896262,-1.7318029
1099,2026-05-11 16:08:26.006430,1.1046376,0.117384896,-0.6948576,-0.6264423,0.47219884,-1.7142406
1100,2026-05-11 16:08:26.009151,1.1046376,0.117384896,-0.6948576,-0.6264423,0.47219884,-1.7142406
1101,2026-05-11 16:08:26.011863,0.837061,0.2862972,-0.44569677,-0.82756966,0.038179077,-1.8512272
1102,2026-05-11 16:08:26.014585,0.837061,0.2862972,-0.44569677,-0.82756966,0.038179077,-1.8512272
1103,2026-05-11 16:08:26.017529,0.837061,0.2862972,-0.44569677,-0.82756966,0.038179077,-1.8512272
1104,2026-05-11 16:08:26.020416,0.837061,0.2862972,-0.44569677,-0.82756966,0.038179077,-1.8512272
1105,2026-05-11 16:08:26.023215,0.588388,0.34105647,-0.32190904,-0.7982482,-0.25534168,-1.602605
1106,2026-05-11 16:08:26.025835,0.588388,0.34105647,-0.32190904,-0.7982482,-0.25534168,-1.602605
1107,2026-05-11 16:08:26.028450,0.588388,0.34105647,-0.32190904,-0.7982482,-0.25534168,-1.602605
1108,2026-05-11 16:08:26.031019,0.588388,0.34105647,-0.32190904,-0.7982482,-0.25534168,-1.602605
1109,2026-05-11 16:08:26.034161,0.588388,0.34105647,-0.32190904,-0.7982482,-0.25534168,-1.602605
1110,2026-05-11 16:08:26.037072,0.588388,0.34105647,-0.32190904,-0.7982482,-0.25534168,-1.602605
1111,2026-05-11 16:08:26.039843,0.588388,0.34105647,-0.32190904,-0.7982482,-0.25534168,-1.602605
1112,2026-05-11 16:08:26.042593,0.5139934,0.3881324,-0.24470939,-0.7698429,-0.3022256,-1.3698653
1113,2026-05-11 16:08:26.045348,0.5139934,0.3881324,-0.24470939,-0.7698429,-0.3022256,-1.3698653
1114,2026-05-11 16:08:26.047966,0.5139934,0.3881324,-0.24470939,-0.7698429,-0.3022256,-1.3698653
1115,2026-05-11 16:08:26.051048,0.5139934,0.3881324,-0.24470939,-0.7698429,-0.3022256,-1.3698653
1116,2026-05-11 16:08:26.053738,0.5139934,0.3881324,-0.24470939,-0.7698429,-0.3022256,-1.3698653
1117,2026-05-11 16:08:26.056525,0.5139934,0.3881324,-0.24470939,-0.7698429,-0.3022256,-1.3698653
1118,2026-05-11 16:08:26.059115,0.5139934,0.3881324,-0.24470939,-0.7698429,-0.3022256,-1.3698653
1119,2026-05-11 16:08:26.062031,0.5139934,0.3881324,-0.24470939,-0.7698429,-0.3022256,-1.3698653
1120,2026-05-11 16:08:26.064955,0.44679436,0.5050904,-0.33032414,-0.93386024,0.024892759,-0.980286
1121,2026-05-11 16:08:26.067947,0.44679436,0.5050904,-0.33032414,-0.93386024,0.024892759,-0.980286
1122,2026-05-11 16:08:26.070831,0.3791075,0.55393475,-0.3927668,-1.2750285,0.12629639,-0.7881689
1123,2026-05-11 16:08:26.073564,0.3791075,0.55393475,-0.3927668,-1.2750285,0.12629639,-0.7881689
1124,2026-05-11 16:08:26.076133,0.3791075,0.55393475,-0.3927668,-1.2750285,0.12629639,-0.7881689
1125,2026-05-11 16:08:26.079031,0.3791075,0.55393475,-0.3927668,-1.2750285,0.12629639,-0.7881689
1126,2026-05-11 16:08:26.081617,0.3791075,0.55393475,-0.3927668,-1.2750285,0.12629639,-0.7881689
1127,2026-05-11 16:08:26.084695,0.3791075,0.55393475,-0.3927668,-1.2750285,0.12629639,-0.7881689
1128,2026-05-11 16:08:26.087379,0.3791075,0.55393475,-0.3927668,-1.2750285,0.12629639,-0.7881689
1129,2026-05-11 16:08:26.090178,0.3791075,0.55393475,-0.3927668,-1.2750285,0.12629639,-0.7881689
1130,2026-05-11 16:08:26.092810,0.3791075,0.55393475,-0.3927668,-1.2750285,0.12629639,-0.7881689
1131,2026-05-11 16:08:26.095607,0.3791075,0.55393475,-0.3927668,-1.2750285,0.12629639,-0.7881689
1132,2026-05-11 16:08:26.098293,0.3791075,0.55393475,-0.3927668,-1.2750285,0.12629639,-0.7881689
1133,2026-05-11 16:08:26.101579,0.3791075,0.55393475,-0.3927668,-1.2750285,0.12629639,-0.7881689
1134,2026-05-11 16:08:26.104251,0.3791075,0.55393475,-0.3927668,-1.2750285,0.12629639,-0.7881689
1135,2026-05-11 16:08:26.106765,0.3791075,0.55393475,-0.3927668,-1.2750285,0.12629639,-0.7881689
1136,2026-05-11 16:08:26.109573,0.3791075,0.55393475,-0.3927668,-1.2750285,0.12629639,-0.7881689
1137,2026-05-11 16:08:26.112160,0.3791075,0.55393475,-0.3927668,-1.2750285,0.12629639,-0.7881689
1138,2026-05-11 16:08:26.114869,0.3791075,0.55393475,-0.3927668,-1.2750285,0.12629639,-0.7881689
1139,2026-05-11 16:08:26.117920,0.3791075,0.55393475,-0.3927668,-1.2750285,0.12629639,-0.7881689
1140,2026-05-11 16:08:26.120599,0.3791075,0.55393475,-0.3927668,-1.2750285,0.12629639,-0.7881689
1141,2026-05-11 16:08:26.123170,0.3791075,0.55393475,-0.3927668,-1.2750285,0.12629639,-0.7881689
1142,2026-05-11 16:08:26.125735,0.3791075,0.55393475,-0.3927668,-1.2750285,0.12629639,-0.7881689
1143,2026-05-11 16:08:26.128268,0.3791075,0.55393475,-0.3927668,-1.2750285,0.12629639,-0.7881689
1144,2026-05-11 16:08:26.130808,0.3791075,0.55393475,-0.3927668,-1.2750285,0.12629639,-0.7881689
1145,2026-05-11 16:08:26.133845,0.3791075,0.55393475,-0.3927668,-1.2750285,0.12629639,-0.7881689
1146,2026-05-11 16:08:26.136536,0.3791075,0.55393475,-0.3927668,-1.2750285,0.12629639,-0.7881689
1147,2026-05-11 16:08:26.139135,0.3791075,0.55393475,-0.3927668,-1.2750285,0.12629639,-0.7881689
1148,2026-05-11 16:08:26.141688,0.3791075,0.55393475,-0.3927668,-1.2750285,0.12629639,-0.7881689
1149,2026-05-11 16:08:26.144313,0.3791075,0.55393475,-0.3927668,-1.2750285,0.12629639,-0.7881689
1150,2026-05-11 16:08:26.146823,0.3791075,0.55393475,-0.3927668,-1.2750285,0.12629639,-0.7881689
1151,2026-05-11 16:08:26.149350,0.3791075,0.55393475,-0.3927668,-1.2750285,0.12629639,-0.7881689
1152,2026-05-11 16:08:26.152376,0.25275865,0.6802836,-0.22592781,-1.6313156,0.06001751,-0.55848354
1153,2026-05-11 16:08:26.155154,0.25275865,0.6802836,-0.22592781,-1.6313156,0.06001751,-0.55848354
1154,2026-05-11 16:08:26.157751,0.25275865,0.6802836,-0.22592781,-1.6313156,0.06001751,-0.55848354
1155,2026-05-11 16:08:26.160436,0.25275865,0.6802836,-0.22592781,-1.6313156,0.06001751,-0.55848354
1156,2026-05-11 16:08:26.163076,0.25275865,0.6802836,-0.22592781,-1.6313156,0.06001751,-0.55848354
1157,2026-05-11 16:08:26.165587,0.25275865,0.6802836,-0.22592781,-1.6313156,0.06001751,-0.55848354
1158,2026-05-11 16:08:26.168635,0.25275865,0.6802836,-0.22592781,-1.6313156,0.06001751,-0.55848354
1159,2026-05-11 16:08:26.171227,0.25275865,0.6802836,-0.22592781,-1.6313156,0.06001751,-0.55848354
1160,2026-05-11 16:08:26.173944,0.09098092,0.70302886,-0.111165024,-1.4738652,-0.16890424,-0.41691554
1161,2026-05-11 16:08:26.176683,0.09098092,0.70302886,-0.111165024,-1.4738652,-0.16890424,-0.41691554
1162,2026-05-11 16:08:26.179304,0.09098092,0.70302886,-0.111165024,-1.4738652,-0.16890424,-0.41691554
1163,2026-05-11 16:08:26.182078,0.09098092,0.70302886,-0.111165024,-1.4738652,-0.16890424,-0.41691554
1164,2026-05-11 16:08:26.185240,0.09098092,0.70302886,-0.111165024,-1.4738652,-0.16890424,-0.41691554
1165,2026-05-11 16:08:26.188152,0.09098092,0.70302886,-0.111165024,-1.4738652,-0.16890424,-0.41691554
1166,2026-05-11 16:08:26.190835,0.09098092,0.70302886,-0.111165024,-1.4738652,-0.16890424,-0.41691554
1167,2026-05-11 16:08:26.193459,0.09098092,0.70302886,-0.111165024,-1.4738652,-0.16890424,-0.41691554
1168,2026-05-11 16:08:26.196044,0.09098092,0.70302886,-0.111165024,-1.4738652,-0.16890424,-0.41691554
1169,2026-05-11 16:08:26.198624,0.09098092,0.70302886,-0.111165024,-1.4738652,-0.16890424,-0.41691554
1170,2026-05-11 16:08:26.201704,0.09098092,0.70302886,-0.111165024,-1.4738652,-0.16890424,-0.41691554
1171,2026-05-11 16:08:26.204590,0.09098092,0.70302886,-0.111165024,-1.4738652,-0.16890424,-0.41691554
1172,2026-05-11 16:08:26.207358,-0.046710044,0.7304085,-0.080492504,-1.325883,-0.30757064,-0.13041973
1173,2026-05-11 16:08:26.210106,-0.046710044,0.7304085,-0.080492504,-1.325883,-0.30757064,-0.13041973
1174,2026-05-11 16:08:26.212713,-0.046710044,0.7304085,-0.080492504,-1.325883,-0.30757064,-0.13041973
1175,2026-05-11 16:08:26.215481,-0.046710044,0.7304085,-0.080492504,-1.325883,-0.30757064,-0.13041973
1176,2026-05-11 16:08:26.218484,-0.046710044,0.7304085,-0.080492504,-1.325883,-0.30757064,-0.13041973
1177,2026-05-11 16:08:26.221326,-0.046710044,0.7304085,-0.080492504,-1.325883,-0.30757064,-0.13041973
1178,2026-05-11 16:08:26.223984,-0.046710044,0.7304085,-0.080492504,-1.325883,-0.30757064,-0.13041973
1179,2026-05-11 16:08:26.226571,-0.046710044,0.7304085,-0.080492504,-1.325883,-0.30757064,-0.13041973
1180,2026-05-11 16:08:26.229258,-0.046710044,0.7304085,-0.080492504,-1.325883,-0.30757064,-0.13041973
1181,2026-05-11 16:08:26.231833,-0.046710044,0.7304085,-0.080492504,-1.325883,-0.30757064,-0.13041973
1182,2026-05-11 16:08:26.234820,-0.046710044,0.7304085,-0.080492504,-1.325883,-0.30757064,-0.13041973
1183,2026-05-11 16:08:26.237676,-0.046710044,0.7304085,-0.080492504,-1.325883,-0.30757064,-0.13041973
1184,2026-05-11 16:08:26.240293,-0.046710044,0.7304085,-0.080492504,-1.325883,-0.30757064,-0.13041973
1185,2026-05-11 16:08:26.243201,-0.14531335,0.7864483,-0.07683375,-1.1775955,-0.44990227,0.1769982
1186,2026-05-11 16:08:26.245789,-0.14531335,0.7864483,-0.07683375,-1.1775955,-0.44990227,0.1769982
1187,2026-05-11 16:08:26.248385,-0.14531335,0.7864483,-0.07683375,-1.1775955,-0.44990227,0.1769982
1188,2026-05-11 16:08:26.251512,-0.14531335,0.7864483,-0.07683375,-1.1775955,-0.44990227,0.1769982
1189,2026-05-11 16:08:26.254169,-0.14531335,0.7864483,-0.07683375,-1.1775955,-0.44990227,0.1769982
1190,2026-05-11 16:08:26.257012,-0.14531335,0.7864483,-0.07683375,-1.1775955,-0.44990227,0.1769982
1191,2026-05-11 16:08:26.259729,-0.14531335,0.7864483,-0.07683375,-1.1775955,-0.44990227,0.1769982
1192,2026-05-11 16:08:26.262347,-0.14531335,0.7864483,-0.07683375,-1.1775955,-0.44990227,0.1769982
1193,2026-05-11 16:08:26.264940,-0.14531335,0.7864483,-0.07683375,-1.1775955,-0.44990227,0.1769982
1194,2026-05-11 16:08:26.268038,-0.14531335,0.7864483,-0.07683375,-1.1775955,-0.44990227,0.1769982
1195,2026-05-11 16:08:26.270867,-0.14531335,0.7864483,-0.07683375,-1.1775955,-0.44990227,0.1769982
1196,2026-05-11 16:08:26.273555,-0.14531335,0.7864483,-0.07683375,-1.1775955,-0.44990227,0.1769982
1197,2026-05-11 16:08:26.276155,-0.14531335,0.7864483,-0.07683375,-1.1775955,-0.44990227,0.1769982
1198,2026-05-11 16:08:26.278913,-0.14531335,0.7864483,-0.07683375,-1.1775955,-0.44990227,0.1769982
1199,2026-05-11 16:08:26.281646,-0.14531335,0.7864483,-0.07683375,-1.1775955,-0.44990227,0.1769982
1200,2026-05-11 16:08:26.284694,-0.14531335,0.7864483,-0.07683375,-1.1775955,-0.44990227,0.1769982
1201,2026-05-11 16:08:26.287356,-0.14531335,0.7864483,-0.07683375,-1.1775955,-0.44990227,0.1769982
1202,2026-05-11 16:08:26.289937,-0.14531335,0.7864483,-0.07683375,-1.1775955,-0.44990227,0.1769982
1203,2026-05-11 16:08:26.292677,-0.14531335,0.7864483,-0.07683375,-1.1775955,-0.44990227,0.1769982
1204,2026-05-11 16:08:26.295453,-0.14531335,0.7864483,-0.07683375,-1.1775955,-0.44990227,0.1769982
1205,2026-05-11 16:08:26.298054,-0.14531335,0.7864483,-0.07683375,-1.1775955,-0.44990227,0.1769982
1206,2026-05-11 16:08:26.301098,-0.14531335,0.7864483,-0.07683375,-1.1775955,-0.44990227,0.1769982
1207,2026-05-11 16:08:26.303821,-0.14531335,0.7864483,-0.07683375,-1.1775955,-0.44990227,0.1769982
1208,2026-05-11 16:08:26.306393,-0.14531335,0.7864483,-0.07683375,-1.1775955,-0.44990227,0.1769982
1209,2026-05-11 16:08:26.308959,-0.14531335,0.7864483,-0.07683375,-1.1775955,-0.44990227,0.1769982
1210,2026-05-11 16:08:26.311686,-0.14531335,0.7864483,-0.07683375,-1.1775955,-0.44990227,0.1769982
1211,2026-05-11 16:08:26.314265,-0.14531335,0.7864483,-0.07683375,-1.1775955,-0.44990227,0.1769982
1212,2026-05-11 16:08:26.317425,-0.14531335,0.7864483,-0.07683375,-1.1775955,-0.44990227,0.1769982
1213,2026-05-11 16:08:26.320266,-0.14531335,0.7864483,-0.07683375,-1.1775955,-0.44990227,0.1769982
1214,2026-05-11 16:08:26.323034,-0.17635176,0.9090774,-0.18860857,-1.0622946,-0.6035349,0.63316184
1215,2026-05-11 16:08:26.325746,-0.17635176,0.9090774,-0.18860857,-1.0366384,-0.6986771,0.9253081
1216,2026-05-11 16:08:26.328545,-0.17635176,0.9090774,-0.18860857,-1.0366384,-0.6986771,0.9253081
1217,2026-05-11 16:08:26.331179,-0.17635176,0.9090774,-0.18860857,-1.0366384,-0.6986771,0.9253081
1218,2026-05-11 16:08:26.334522,-0.17635176,0.9090774,-0.18860857,-1.0366384,-0.6986771,0.9253081
1219,2026-05-11 16:08:26.337382,-0.17635176,0.9090774,-0.18860857,-1.0366384,-0.6986771,0.9253081
1220,2026-05-11 16:08:26.339986,-0.17635176,0.9090774,-0.18860857,-1.0366384,-0.6986771,0.9253081
1221,2026-05-11 16:08:26.342573,-0.17635176,0.9090774,-0.18860857,-1.0366384,-0.6986771,0.9253081
1222,2026-05-11 16:08:26.345383,-0.17635176,0.9090774,-0.18860857,-1.0366384,-0.6986771,0.9253081
1223,2026-05-11 16:08:26.347960,-0.17635176,0.9090774,-0.18860857,-1.0366384,-0.6986771,0.9253081
1224,2026-05-11 16:08:26.350813,-0.17635176,0.9090774,-0.18860857,-1.0366384,-0.6986771,0.9253081
1225,2026-05-11 16:08:26.353662,-0.17635176,0.9090774,-0.18860857,-1.0366384,-0.6986771,0.9253081
1226,2026-05-11 16:08:26.356239,-0.17635176,0.9090774,-0.18860857,-1.0366384,-0.6986771,0.9253081
1227,2026-05-11 16:08:26.358807,-0.17635176,0.9090774,-0.18860857,-1.0366384,-0.6986771,0.9253081
1228,2026-05-11 16:08:26.361533,-0.17635176,0.9090774,-0.18860857,-1.0366384,-0.6986771,0.9253081
1229,2026-05-11 16:08:26.364228,-0.17635176,0.9090774,-0.18860857,-1.0366384,-0.6986771,0.9253081
1230,2026-05-11 16:08:26.367395,-0.17635176,0.9090774,-0.18860857,-1.0366384,-0.6986771,0.9253081
1231,2026-05-11 16:08:26.370359,-0.17635176,0.9090774,-0.18860857,-1.0366384,-0.6986771,0.9253081
1232,2026-05-11 16:08:26.373112,-0.17635176,0.9090774,-0.18860857,-1.0366384,-0.6986771,0.9253081
1233,2026-05-11 16:08:26.375693,-0.17635176,0.9090774,-0.18860857,-1.0366384,-0.6986771,0.9253081
1234,2026-05-11 16:08:26.378282,-0.17635176,0.9090774,-0.18860857,-1.0366384,-0.6986771,0.9253081
1235,2026-05-11 16:08:26.380837,-0.17635176,0.9090774,-0.18860857,-1.0366384,-0.6986771,0.9253081
1236,2026-05-11 16:08:26.383663,-0.12726352,0.9242003,-0.34026375,-1.0366384,-0.6986771,0.9253081
1237,2026-05-11 16:08:26.386595,-0.12726352,0.9242003,-0.34026375,-1.0366384,-0.6986771,0.9253081
1238,2026-05-11 16:08:26.389456,-0.12726352,0.9242003,-0.34026375,-1.1604912,-0.7845037,1.099252
1239,2026-05-11 16:08:26.392108,-0.12726352,0.9242003,-0.34026375,-1.1604912,-0.7845037,1.099252
1240,2026-05-11 16:08:26.394753,-0.2066584,0.9866429,-0.39880377,-1.1604912,-0.7845037,1.099252
1241,2026-05-11 16:08:26.397436,-0.2066584,0.9866429,-0.39880377,-1.5231925,-0.8436049,1.2154691
1242,2026-05-11 16:08:26.400495,-0.2066584,0.9866429,-0.39880377,-1.5231925,-0.8436049,1.2154691
1243,2026-05-11 16:08:26.403394,-0.2066584,0.9866429,-0.39880377,-1.5231925,-0.8436049,1.2154691
1244,2026-05-11 16:08:26.406114,-0.2066584,0.9866429,-0.39880377,-1.5231925,-0.8436049,1.2154691
1245,2026-05-11 16:08:26.408848,-0.2066584,0.9866429,-0.39880377,-1.5231925,-0.8436049,1.2154691
1246,2026-05-11 16:08:26.411737,-0.2066584,0.9866429,-0.39880377,-1.5231925,-0.8436049,1.2154691
