id,timestamp,acc_x,acc_y,acc_z,gyro_x,gyro_y,gyro_z
1,2026-05-11 16:09:23.173072,0.36130157,-0.1378739,0.910541,0.15042557,-0.14401148,-0.11453723
2,2026-05-11 16:09:23.183818,0.36130157,-0.1378739,0.910541,0.15042557,-0.14401148,-0.11453723
3,2026-05-11 16:09:23.186890,0.36130157,-0.1378739,0.910541,0.15042557,-0.14401148,-0.11453723
4,2026-05-11 16:09:23.189647,0.36130157,-0.1378739,0.910541,0.15042557,-0.14401148,-0.11453723
5,2026-05-11 16:09:23.192490,0.36130157,-0.1378739,0.910541,0.15042557,-0.14401148,-0.11453723
6,2026-05-11 16:09:23.195169,0.36130157,-0.1378739,0.910541,0.15042557,-0.14401148,-0.11453723
7,2026-05-11 16:09:23.197809,0.36130157,-0.1378739,0.910541,0.15042557,-0.14401148,-0.11453723
8,2026-05-11 16:09:23.201055,0.36130157,-0.1378739,0.910541,0.15042557,-0.14401148,-0.11453723
9,2026-05-11 16:09:23.203906,0.36130157,-0.1378739,0.910541,0.15042557,-0.14401148,-0.11453723
10,2026-05-11 16:09:23.206542,0.36130157,-0.1378739,0.910541,0.15042557,-0.14401148,-0.11453723
11,2026-05-11 16:09:23.209223,0.36130157,-0.1378739,0.910541,0.15042557,-0.14401148,-0.11453723
12,2026-05-11 16:09:23.211767,0.36130157,-0.1378739,0.910541,0.15042557,-0.14401148,-0.11453723
13,2026-05-11 16:09:23.214646,0.36130157,-0.1378739,0.910541,0.15042557,-0.14401148,-0.11453723
14,2026-05-11 16:09:23.217683,0.36130157,-0.1378739,0.910541,0.15042557,-0.14401148,-0.11453723
15,2026-05-11 16:09:23.220407,0.36130157,-0.1378739,0.910541,0.15042557,-0.14401148,-0.11453723
16,2026-05-11 16:09:23.223052,0.36130157,-0.1378739,0.910541,0.15042557,-0.14401148,-0.11453723
17,2026-05-11 16:09:23.225727,0.36130157,-0.1378739,0.910541,0.15042557,-0.14401148,-0.11453723
18,2026-05-11 16:09:23.228324,0.36130157,-0.1378739,0.910541,0.15042557,-0.14401148,-0.11453723
19,2026-05-11 16:09:23.230855,0.36130157,-0.1378739,0.910541,0.15042557,-0.14401148,-0.11453723
20,2026-05-11 16:09:23.234005,0.36130157,-0.1378739,0.910541,0.15042557,-0.14401148,-0.11453723
21,2026-05-11 16:09:23.236883,0.36130157,-0.1378739,0.910541,0.15042557,-0.14401148,-0.11453723
22,2026-05-11 16:09:23.239509,0.36130157,-0.1378739,0.910541,0.15042557,-0.14401148,-0.11453723
23,2026-05-11 16:09:23.242239,0.36130157,-0.1378739,0.910541,0.15042557,-0.14401148,-0.11453723
24,2026-05-11 16:09:23.244878,0.36130157,-0.1378739,0.910541,0.15042557,-0.14401148,-0.11453723
25,2026-05-11 16:09:23.247556,0.36130157,-0.1378739,0.910541,0.15042557,-0.14401148,-0.11453723
26,2026-05-11 16:09:23.250604,0.36130157,-0.1378739,0.910541,0.15042557,-0.14401148,-0.11453723
27,2026-05-11 16:09:23.253389,0.36130157,-0.1378739,0.910541,0.15042557,-0.14401148,-0.11453723
28,2026-05-11 16:09:23.256012,0.36130157,-0.1378739,0.910541,0.15042557,-0.14401148,-0.11453723
29,2026-05-11 16:09:23.258713,0.36130157,-0.1378739,0.910541,0.15042557,-0.14401148,-0.11453723
30,2026-05-11 16:09:23.261360,0.36130157,-0.1378739,0.910541,0.15042557,-0.14401148,-0.11453723
31,2026-05-11 16:09:23.263896,0.36130157,-0.1378739,0.910541,0.15042557,-0.14401148,-0.11453723
32,2026-05-11 16:09:23.267004,0.36130157,-0.1378739,0.910541,0.15042557,-0.14401148,-0.11453723
33,2026-05-11 16:09:23.269700,0.36130157,-0.1378739,0.910541,0.15042557,-0.14401148,-0.11453723
34,2026-05-11 16:09:23.272307,0.36130157,-0.1378739,0.910541,0.15042557,-0.14401148,-0.11453723
35,2026-05-11 16:09:23.275038,0.36130157,-0.1378739,0.910541,0.15042557,-0.14401148,-0.11453723
36,2026-05-11 16:09:23.277844,0.36130157,-0.1378739,0.910541,0.15042557,-0.14401148,-0.11453723
37,2026-05-11 16:09:23.280448,0.36130157,-0.1378739,0.910541,0.15042557,-0.14401148,-0.11453723
38,2026-05-11 16:09:23.283455,0.36130157,-0.1378739,0.910541,0.15042557,-0.14401148,-0.11453723
39,2026-05-11 16:09:23.286387,0.36130157,-0.1378739,0.910541,0.15042557,-0.14401148,-0.11453723
40,2026-05-11 16:09:23.289017,0.36130157,-0.1378739,0.910541,0.15042557,-0.14401148,-0.11453723
41,2026-05-11 16:09:23.291789,0.36130157,-0.1378739,0.910541,0.15042557,-0.14401148,-0.11453723
42,2026-05-11 16:09:23.294531,0.36130157,-0.1378739,0.910541,0.15042557,-0.14401148,-0.11453723
43,2026-05-11 16:09:23.297241,0.36130157,-0.1378739,0.910541,0.15042557,-0.14401148,-0.11453723
44,2026-05-11 16:09:23.300195,0.36130157,-0.1378739,0.910541,0.15042557,-0.14401148,-0.11453723
45,2026-05-11 16:09:23.303231,0.36130157,-0.1378739,0.910541,0.15042557,-0.14401148,-0.11453723
46,2026-05-11 16:09:23.305945,0.36130157,-0.1378739,0.910541,0.15042557,-0.14401148,-0.11453723
47,2026-05-11 16:09:23.308654,0.36130157,-0.1378739,0.910541,0.15042557,-0.14401148,-0.11453723
48,2026-05-11 16:09:23.311263,0.36130157,-0.1378739,0.910541,0.15042557,-0.14401148,-0.11453723
49,2026-05-11 16:09:23.314081,0.36130157,-0.1378739,0.910541,0.15042557,-0.14401148,-0.11453723
50,2026-05-11 16:09:23.317197,0.36130157,-0.1378739,0.910541,0.15042557,-0.14401148,-0.11453723
51,2026-05-11 16:09:23.320116,0.36130157,-0.1378739,0.910541,0.15042557,-0.14401148,-0.11453723
52,2026-05-11 16:09:23.322694,0.36130157,-0.1378739,0.910541,0.15042557,-0.14401148,-0.11453723
53,2026-05-11 16:09:23.325462,0.36130157,-0.1378739,0.910541,0.15042557,-0.14401148,-0.11453723
54,2026-05-11 16:09:23.328070,0.36130157,-0.1378739,0.910541,0.15042557,-0.14401148,-0.11453723
55,2026-05-11 16:09:23.330887,0.36130157,-0.1378739,0.910541,0.15042557,-0.14401148,-0.11453723
56,2026-05-11 16:09:23.334170,0.53869,-0.11281146,0.80712026,0.15042557,-0.14401148,-0.11453723
57,2026-05-11 16:09:23.337072,0.53869,-0.11281146,0.80712026,0.15042557,-0.14401148,-0.11453723
58,2026-05-11 16:09:23.339739,0.53869,-0.11281146,0.80712026,0.15042557,-0.14401148,-0.11453723
59,2026-05-11 16:09:23.342433,0.53869,-0.11281146,0.80712026,0.15042557,-0.14401148,-0.11453723
60,2026-05-11 16:09:23.345061,0.53869,-0.11281146,0.80712026,0.15042557,-0.14401148,-0.11453723
61,2026-05-11 16:09:23.347772,0.53869,-0.11281146,0.80712026,0.15042557,-0.14401148,-0.11453723
62,2026-05-11 16:09:23.350975,0.53869,-0.11281146,0.80712026,0.15042557,-0.14401148,-0.11453723
63,2026-05-11 16:09:23.353813,0.53869,-0.11281146,0.80712026,0.15042557,-0.14401148,-0.11453723
64,2026-05-11 16:09:23.356407,0.53869,-0.11281146,0.80712026,0.15042557,-0.14401148,-0.11453723
65,2026-05-11 16:09:23.359311,0.53869,-0.11281146,0.80712026,0.15042557,-0.14401148,-0.11453723
66,2026-05-11 16:09:23.361936,0.53869,-0.11281146,0.80712026,0.15042557,-0.14401148,-0.11453723
67,2026-05-11 16:09:23.364555,0.53869,-0.11281146,0.80712026,0.15042557,-0.14401148,-0.11453723
68,2026-05-11 16:09:23.367520,0.53869,-0.11281146,0.80712026,0.15042557,-0.14401148,-0.11453723
69,2026-05-11 16:09:23.370391,0.53869,-0.11281146,0.80712026,0.15042557,-0.14401148,-0.11453723
70,2026-05-11 16:09:23.373031,0.53869,-0.11281146,0.80712026,0.15042557,-0.14401148,-0.11453723
71,2026-05-11 16:09:23.375587,0.53869,-0.11281146,0.80712026,0.15042557,-0.14401148,-0.11453723
72,2026-05-11 16:09:23.378493,0.53869,-0.11281146,0.80712026,0.15042557,-0.14401148,-0.11453723
73,2026-05-11 16:09:23.381106,0.53869,-0.11281146,0.80712026,0.15042557,-0.14401148,-0.11453723
74,2026-05-11 16:09:23.384058,0.53869,-0.11281146,0.80712026,0.15042557,-0.14401148,-0.11453723
75,2026-05-11 16:09:23.386879,0.53869,-0.11281146,0.80712026,0.15042557,-0.14401148,-0.11453723
76,2026-05-11 16:09:23.389513,0.53869,-0.11281146,0.80712026,0.15042557,-0.14401148,-0.11453723
77,2026-05-11 16:09:23.392341,0.53869,-0.11281146,0.80712026,0.15042557,-0.14401148,-0.11453723
78,2026-05-11 16:09:23.395138,0.53869,-0.11281146,0.80712026,0.15042557,-0.14401148,-0.11453723
79,2026-05-11 16:09:23.397882,0.53869,-0.11281146,0.80712026,0.15042557,-0.14401148,-0.11453723
80,2026-05-11 16:09:23.400787,0.53869,-0.11281146,0.80712026,0.15042557,-0.14401148,-0.11453723
81,2026-05-11 16:09:23.403491,0.53869,-0.11281146,0.80712026,0.15042557,-0.14401148,-0.11453723
82,2026-05-11 16:09:23.406185,0.53869,-0.11281146,0.80712026,0.15042557,-0.14401148,-0.11453723
83,2026-05-11 16:09:23.408732,0.53869,-0.11281146,0.80712026,0.15042557,-0.14401148,-0.11453723
84,2026-05-11 16:09:23.411392,0.53869,-0.11281146,0.80712026,0.15042557,-0.14401148,-0.11453723
85,2026-05-11 16:09:23.413944,0.53869,-0.11281146,0.80712026,0.15042557,-0.14401148,-0.11453723
86,2026-05-11 16:09:23.416983,0.53869,-0.11281146,0.80712026,-0.18173242,-0.071776666,0.08353582
87,2026-05-11 16:09:23.419792,0.53869,-0.11281146,0.80712026,-0.18173242,-0.071776666,0.08353582
88,2026-05-11 16:09:23.422352,0.53869,-0.11281146,0.80712026,-0.18173242,-0.071776666,0.08353582
89,2026-05-11 16:09:23.425082,0.53869,-0.11281146,0.80712026,-0.18173242,-0.071776666,0.08353582
90,2026-05-11 16:09:23.427646,0.53869,-0.11281146,0.80712026,-0.18173242,-0.071776666,0.08353582
91,2026-05-11 16:09:23.430355,0.53869,-0.11281146,0.80712026,-0.18173242,-0.071776666,0.08353582
92,2026-05-11 16:09:23.433132,0.53869,-0.11281146,0.80712026,-0.29642236,0.047036625,0.06780604
93,2026-05-11 16:09:23.436197,0.53869,-0.11281146,0.80712026,-0.29642236,0.047036625,0.06780604
94,2026-05-11 16:09:23.438845,0.53869,-0.11281146,0.80712026,-0.29642236,0.047036625,0.06780604
95,2026-05-11 16:09:23.441497,0.53869,-0.11281146,0.80712026,-0.29642236,0.047036625,0.06780604
96,2026-05-11 16:09:23.444265,0.53869,-0.11281146,0.80712026,-0.29642236,0.047036625,0.06780604
97,2026-05-11 16:09:23.446860,0.53869,-0.11281146,0.80712026,-0.29642236,0.047036625,0.06780604
98,2026-05-11 16:09:23.449794,0.53869,-0.11281146,0.80712026,-0.29642236,0.047036625,0.06780604
99,2026-05-11 16:09:23.452822,0.5582033,-0.115799434,0.8144987,-0.29642236,0.047036625,0.06780604
100,2026-05-11 16:09:23.455442,0.5582033,-0.115799434,0.8144987,-0.29642236,0.047036625,0.06780604
101,2026-05-11 16:09:23.458163,0.5582033,-0.115799434,0.8144987,-0.29642236,0.047036625,0.06780604
102,2026-05-11 16:09:23.460717,0.5582033,-0.115799434,0.8144987,-0.29642236,0.047036625,0.06780604
103,2026-05-11 16:09:23.463434,0.5582033,-0.115799434,0.8144987,-0.29642236,0.047036625,0.06780604
104,2026-05-11 16:09:23.466004,0.5582033,-0.115799434,0.8144987,-0.29642236,0.047036625,0.06780604
105,2026-05-11 16:09:23.469076,0.5582033,-0.115799434,0.8144987,-0.29642236,0.047036625,0.06780604
106,2026-05-11 16:09:23.471886,0.5582033,-0.115799434,0.8144987,-0.29642236,0.047036625,0.06780604
107,2026-05-11 16:09:23.474472,0.5582033,-0.115799434,0.8144987,-0.29642236,0.047036625,0.06780604
108,2026-05-11 16:09:23.477007,0.5582033,-0.115799434,0.8144987,-0.29642236,0.047036625,0.06780604
109,2026-05-11 16:09:23.479684,0.5582033,-0.115799434,0.8144987,-0.29642236,0.047036625,0.06780604
110,2026-05-11 16:09:23.482230,0.5582033,-0.115799434,0.8144987,-0.29642236,0.047036625,0.06780604
111,2026-05-11 16:09:23.486173,0.5582033,-0.115799434,0.8144987,-0.29642236,0.047036625,0.06780604
112,2026-05-11 16:09:23.489602,0.5582033,-0.115799434,0.8144987,-0.29642236,0.047036625,0.06780604
113,2026-05-11 16:09:23.492429,0.5582033,-0.115799434,0.8144987,-0.29642236,0.047036625,0.06780604
114,2026-05-11 16:09:23.495105,0.5582033,-0.115799434,0.8144987,-0.29642236,0.047036625,0.06780604
115,2026-05-11 16:09:23.497662,0.5582033,-0.115799434,0.8144987,-0.29642236,0.047036625,0.06780604
116,2026-05-11 16:09:23.500772,0.5582033,-0.115799434,0.8144987,-0.29642236,0.047036625,0.06780604
117,2026-05-11 16:09:23.503573,0.5582033,-0.115799434,0.8144987,-0.29642236,0.047036625,0.06780604
118,2026-05-11 16:09:23.506190,0.5582033,-0.115799434,0.8144987,-0.29642236,0.047036625,0.06780604
119,2026-05-11 16:09:23.508727,0.5582033,-0.115799434,0.8144987,-0.29642236,0.047036625,0.06780604
120,2026-05-11 16:09:23.511557,0.5582033,-0.115799434,0.8144987,-0.29642236,0.047036625,0.06780604
121,2026-05-11 16:09:23.514171,0.5582033,-0.115799434,0.8144987,-0.29642236,0.047036625,0.06780604
122,2026-05-11 16:09:23.517044,0.5582033,-0.115799434,0.8144987,-0.29642236,0.047036625,0.06780604
123,2026-05-11 16:09:23.520069,0.5582033,-0.115799434,0.8144987,-0.29642236,0.047036625,0.06780604
124,2026-05-11 16:09:23.522775,0.5582033,-0.115799434,0.8144987,-0.29642236,0.047036625,0.06780604
125,2026-05-11 16:09:23.525340,0.5582033,-0.115799434,0.8144987,-0.29642236,0.047036625,0.06780604
126,2026-05-11 16:09:23.527915,0.5582033,-0.115799434,0.8144987,-0.29642236,0.047036625,0.06780604
127,2026-05-11 16:09:23.530569,0.5582033,-0.115799434,0.8144987,-0.29642236,0.047036625,0.06780604
128,2026-05-11 16:09:23.533403,0.5582033,-0.115799434,0.8144987,-0.29642236,0.047036625,0.06780604
129,2026-05-11 16:09:23.536342,0.5582033,-0.115799434,0.8144987,-0.29642236,0.047036625,0.06780604
130,2026-05-11 16:09:23.538960,0.5582033,-0.115799434,0.8144987,-0.29642236,0.047036625,0.06780604
131,2026-05-11 16:09:23.541491,0.5582033,-0.115799434,0.8144987,-0.29642236,0.047036625,0.06780604
132,2026-05-11 16:09:23.544157,0.5582033,-0.115799434,0.8144987,-0.29642236,0.047036625,0.06780604
133,2026-05-11 16:09:23.546697,0.5582033,-0.115799434,0.8144987,-0.29642236,0.047036625,0.06780604
134,2026-05-11 16:09:23.549374,0.5582033,-0.115799434,0.8144987,-0.29642236,0.047036625,0.06780604
135,2026-05-11 16:09:23.552475,0.5582033,-0.115799434,0.8144987,-0.29642236,0.047036625,0.06780604
136,2026-05-11 16:09:23.555307,0.5582033,-0.115799434,0.8144987,-0.29642236,0.047036625,0.06780604
137,2026-05-11 16:09:23.557940,0.5582033,-0.115799434,0.8144987,-0.29642236,0.047036625,0.06780604
138,2026-05-11 16:09:23.560511,0.5582033,-0.115799434,0.8144987,-0.29642236,0.047036625,0.06780604
139,2026-05-11 16:09:23.563166,0.5582033,-0.115799434,0.8144987,-0.29642236,0.047036625,0.06780604
140,2026-05-11 16:09:23.565789,0.5582033,-0.115799434,0.8144987,-0.29642236,0.047036625,0.06780604
141,2026-05-11 16:09:23.568814,0.5582033,-0.115799434,0.8144987,-0.29642236,0.047036625,0.06780604
142,2026-05-11 16:09:23.571488,0.5582033,-0.115799434,0.8144987,-0.29642236,0.047036625,0.06780604
143,2026-05-11 16:09:23.574076,0.5582033,-0.115799434,0.8144987,-0.29642236,0.047036625,0.06780604
144,2026-05-11 16:09:23.576632,0.5582033,-0.115799434,0.8144987,-0.29642236,0.047036625,0.06780604
145,2026-05-11 16:09:23.579163,0.5582033,-0.115799434,0.8144987,-0.29642236,0.047036625,0.06780604
146,2026-05-11 16:09:23.581924,0.5582033,-0.115799434,0.8144987,-0.29642236,0.047036625,0.06780604
147,2026-05-11 16:09:23.584980,0.5582033,-0.115799434,0.8144987,-0.29642236,0.047036625,0.06780604
148,2026-05-11 16:09:23.587707,0.5582033,-0.115799434,0.8144987,-0.29642236,0.047036625,0.06780604
149,2026-05-11 16:09:23.590315,0.5582033,-0.115799434,0.8144987,-0.29642236,0.047036625,0.06780604
150,2026-05-11 16:09:23.593013,0.5582033,-0.115799434,0.8144987,-0.29642236,0.047036625,0.06780604
151,2026-05-11 16:09:23.595622,0.5582033,-0.115799434,0.8144987,-0.29642236,0.047036625,0.06780604
152,2026-05-11 16:09:23.598419,0.5582033,-0.115799434,0.8144987,-0.29642236,0.047036625,0.06780604
153,2026-05-11 16:09:23.601542,0.5582033,-0.115799434,0.8144987,-0.29642236,0.047036625,0.06780604
154,2026-05-11 16:09:23.604265,0.5582033,-0.115799434,0.8144987,-0.29642236,0.047036625,0.06780604
155,2026-05-11 16:09:23.606809,0.5582033,-0.115799434,0.8144987,-0.29642236,0.047036625,0.06780604
156,2026-05-11 16:09:23.609489,0.5582033,-0.115799434,0.8144987,-0.29642236,0.047036625,0.06780604
157,2026-05-11 16:09:23.612041,0.5582033,-0.115799434,0.8144987,-0.29642236,0.047036625,0.06780604
158,2026-05-11 16:09:23.614547,0.5582033,-0.115799434,0.8144987,-0.29642236,0.047036625,0.06780604
159,2026-05-11 16:09:23.617674,0.5582033,-0.115799434,0.8144987,-0.29642236,0.047036625,0.06780604
160,2026-05-11 16:09:23.620379,0.5582033,-0.115799434,0.8144987,-0.29642236,0.047036625,0.06780604
161,2026-05-11 16:09:23.622983,0.53515315,-0.119641125,0.86309916,-0.5569564,0.3203988,0.04046982
162,2026-05-11 16:09:23.625562,0.53515315,-0.119641125,0.86309916,-0.5569564,0.3203988,0.04046982
163,2026-05-11 16:09:23.628084,0.53515315,-0.119641125,0.86309916,-0.5569564,0.3203988,0.04046982
164,2026-05-11 16:09:23.630597,0.53515315,-0.119641125,0.86309916,-0.5569564,0.3203988,0.04046982
165,2026-05-11 16:09:23.634494,0.53515315,-0.119641125,0.86309916,-0.5569564,0.3203988,0.04046982
166,2026-05-11 16:09:23.637237,0.53515315,-0.119641125,0.86309916,-0.5569564,0.3203988,0.04046982
167,2026-05-11 16:09:23.640059,0.53515315,-0.119641125,0.86309916,-0.5569564,0.3203988,0.04046982
168,2026-05-11 16:09:23.642794,0.53515315,-0.119641125,0.86309916,-0.5569564,0.3203988,0.04046982
169,2026-05-11 16:09:23.645391,0.53515315,-0.119641125,0.86309916,-0.5569564,0.3203988,0.04046982
170,2026-05-11 16:09:23.647957,0.53515315,-0.119641125,0.86309916,-0.5569564,0.3203988,0.04046982
171,2026-05-11 16:09:23.650968,0.53515315,-0.119641125,0.86309916,-0.5569564,0.3203988,0.04046982
172,2026-05-11 16:09:23.653725,0.53515315,-0.119641125,0.86309916,-0.5569564,0.3203988,0.04046982
173,2026-05-11 16:09:23.656403,0.53515315,-0.119641125,0.86309916,-0.5569564,0.3203988,0.04046982
174,2026-05-11 16:09:23.658988,0.53515315,-0.119641125,0.86309916,-0.5569564,0.3203988,0.04046982
175,2026-05-11 16:09:23.661823,0.53515315,-0.119641125,0.86309916,-0.5569564,0.3203988,0.04046982
176,2026-05-11 16:09:23.664390,0.53515315,-0.119641125,0.86309916,-0.5569564,0.3203988,0.04046982
177,2026-05-11 16:09:23.667431,0.53515315,-0.119641125,0.86309916,-0.5569564,0.3203988,0.04046982
178,2026-05-11 16:09:23.670227,0.53515315,-0.119641125,0.86309916,-0.5569564,0.3203988,0.04046982
179,2026-05-11 16:09:23.672891,0.53515315,-0.119641125,0.86309916,-0.5569564,0.3203988,0.04046982
180,2026-05-11 16:09:23.675487,0.53515315,-0.119641125,0.86309916,-0.5569564,0.3203988,0.04046982
181,2026-05-11 16:09:23.678290,0.53515315,-0.119641125,0.86309916,-0.5569564,0.3203988,0.04046982
182,2026-05-11 16:09:23.680883,0.53515315,-0.119641125,0.86309916,-0.5569564,0.3203988,0.04046982
183,2026-05-11 16:09:23.683755,0.53515315,-0.119641125,0.86309916,-0.5569564,0.3203988,0.04046982
184,2026-05-11 16:09:23.686589,0.53515315,-0.119641125,0.86309916,-0.5569564,0.3203988,0.04046982
185,2026-05-11 16:09:23.689211,0.53515315,-0.119641125,0.86309916,-0.5569564,0.3203988,0.04046982
186,2026-05-11 16:09:23.692006,0.53515315,-0.119641125,0.86309916,-0.5569564,0.3203988,0.04046982
187,2026-05-11 16:09:23.694743,0.53515315,-0.119641125,0.86309916,-0.5569564,0.3203988,0.04046982
188,2026-05-11 16:09:23.697349,0.53515315,-0.119641125,0.86309916,-0.5569564,0.3203988,0.04046982
189,2026-05-11 16:09:23.700282,0.53515315,-0.119641125,0.86309916,-0.5569564,0.3203988,0.04046982
190,2026-05-11 16:09:23.703233,0.53515315,-0.119641125,0.86309916,-0.5569564,0.3203988,0.04046982
191,2026-05-11 16:09:23.705805,0.53515315,-0.119641125,0.86309916,-0.5569564,0.3203988,0.04046982
192,2026-05-11 16:09:23.708604,0.53515315,-0.119641125,0.86309916,-0.5569564,0.3203988,0.04046982
193,2026-05-11 16:09:23.711220,0.53515315,-0.119641125,0.86309916,-0.5569564,0.3203988,0.04046982
194,2026-05-11 16:09:23.713875,0.53515315,-0.119641125,0.86309916,-0.5569564,0.3203988,0.04046982
195,2026-05-11 16:09:23.716800,0.53515315,-0.119641125,0.86309916,-0.5569564,0.3203988,0.04046982
196,2026-05-11 16:09:23.719885,0.53515315,-0.119641125,0.86309916,-0.5569564,0.3203988,0.04046982
197,2026-05-11 16:09:23.722491,0.53515315,-0.119641125,0.86309916,-0.5569564,0.3203988,0.04046982
198,2026-05-11 16:09:23.725066,0.53515315,-0.119641125,0.86309916,-0.5569564,0.3203988,0.04046982
199,2026-05-11 16:09:23.727831,0.53515315,-0.119641125,0.86309916,-0.5569564,0.3203988,0.04046982
200,2026-05-11 16:09:23.730433,0.53515315,-0.119641125,0.86309916,-0.5569564,0.3203988,0.04046982
201,2026-05-11 16:09:23.733375,0.53515315,-0.119641125,0.86309916,-0.5569564,0.3203988,0.04046982
202,2026-05-11 16:09:23.736196,0.53515315,-0.119641125,0.86309916,-0.5569564,0.3203988,0.04046982
203,2026-05-11 16:09:23.738923,0.53515315,-0.119641125,0.86309916,-0.5569564,0.3203988,0.04046982
204,2026-05-11 16:09:23.741503,0.53515315,-0.119641125,0.86309916,-0.5569564,0.3203988,0.04046982
205,2026-05-11 16:09:23.744317,0.53515315,-0.119641125,0.86309916,-0.5569564,0.3203988,0.04046982
206,2026-05-11 16:09:23.746992,0.53515315,-0.119641125,0.86309916,-0.5569564,0.3203988,0.04046982
207,2026-05-11 16:09:23.750549,0.53515315,-0.119641125,0.86309916,-0.5569564,0.3203988,0.04046982
208,2026-05-11 16:09:23.754004,0.53515315,-0.119641125,0.86309916,-0.5569564,0.3203988,0.04046982
209,2026-05-11 16:09:23.756959,0.53515315,-0.119641125,0.86309916,-0.5569564,0.3203988,0.04046982
210,2026-05-11 16:09:23.760465,0.5524103,-0.11543357,0.98780155,-0.5569564,0.3203988,0.04046982
211,2026-05-11 16:09:23.763821,0.5524103,-0.11543357,0.98780155,-0.5120578,0.38912117,-0.039553523
212,2026-05-11 16:09:23.768276,0.5867415,-0.10348164,1.1286634,-0.5120578,0.38912117,-0.039553523
213,2026-05-11 16:09:23.771460,0.5867415,-0.10348164,1.1286634,-0.5120578,0.38912117,-0.039553523
214,2026-05-11 16:09:23.775159,0.5655818,-0.108055085,1.2045215,0.025809057,0.36651915,-0.1788308
215,2026-05-11 16:09:23.778547,0.5133836,-0.08994427,1.1941551,0.025809057,0.36651915,-0.1788308
216,2026-05-11 16:09:23.783141,0.5133836,-0.08994427,1.1941551,0.025809057,0.36651915,-0.1788308
217,2026-05-11 16:09:23.787853,0.5133836,-0.08994427,1.1941551,0.025809057,0.36651915,-0.1788308
218,2026-05-11 16:09:23.791032,0.5133836,-0.08994427,1.1941551,0.025809057,0.36651915,-0.1788308
219,2026-05-11 16:09:23.794280,0.5133836,-0.08994427,1.1941551,0.025809057,0.36651915,-0.1788308
220,2026-05-11 16:09:23.797203,0.5133836,-0.08994427,1.1941551,0.025809057,0.36651915,-0.1788308
221,2026-05-11 16:09:23.801218,0.5133836,-0.08994427,1.1941551,0.025809057,0.36651915,-0.1788308
222,2026-05-11 16:09:23.804414,0.5133836,-0.08994427,1.1941551,0.025809057,0.36651915,-0.1788308
223,2026-05-11 16:09:23.807763,0.5133836,-0.08994427,1.1941551,0.025809057,0.36651915,-0.1788308
224,2026-05-11 16:09:23.810681,0.5133836,-0.08994427,1.1941551,0.025809057,0.36651915,-0.1788308
225,2026-05-11 16:09:23.813903,0.5133836,-0.08994427,1.1941551,0.025809057,0.36651915,-0.1788308
226,2026-05-11 16:09:23.817777,0.5133836,-0.08994427,1.1941551,0.025809057,0.36651915,-0.1788308
227,2026-05-11 16:09:23.822640,0.5133836,-0.08994427,1.1941551,0.025809057,0.36651915,-0.1788308
228,2026-05-11 16:09:23.825658,0.5133836,-0.08994427,1.1941551,0.025809057,0.36651915,-0.1788308
229,2026-05-11 16:09:23.828943,0.5133836,-0.08994427,1.1941551,0.025809057,0.36651915,-0.1788308
230,2026-05-11 16:09:23.833712,0.5133836,-0.08994427,1.1941551,0.025809057,0.36651915,-0.1788308
231,2026-05-11 16:09:23.837426,0.5133836,-0.08994427,1.1941551,0.025809057,0.36651915,-0.1788308
232,2026-05-11 16:09:23.841837,0.5133836,-0.08994427,1.1941551,0.025809057,0.36651915,-0.1788308
233,2026-05-11 16:09:23.844809,0.5133836,-0.08994427,1.1941551,0.025809057,0.36651915,-0.1788308
234,2026-05-11 16:09:23.847824,0.4856381,-0.055430062,1.1527503,0.025809057,0.36651915,-0.1788308
235,2026-05-11 16:09:23.851984,0.4856381,-0.055430062,1.1527503,0.025809057,0.36651915,-0.1788308
236,2026-05-11 16:09:23.855426,0.4856381,-0.055430062,1.1527503,0.025809057,0.36651915,-0.1788308
237,2026-05-11 16:09:23.859246,0.4856381,-0.055430062,1.1527503,0.025809057,0.36651915,-0.1788308
238,2026-05-11 16:09:23.863732,0.4856381,-0.055430062,1.1527503,0.1695151,0.4529566,-0.15027285
239,2026-05-11 16:09:23.867459,0.4856381,-0.055430062,1.1527503,0.1695151,0.4529566,-0.15027285
240,2026-05-11 16:09:23.870666,0.4856381,-0.055430062,1.1527503,0.1695151,0.4529566,-0.15027285
241,2026-05-11 16:09:23.873443,0.4856381,-0.055430062,1.1527503,0.1695151,0.4529566,-0.15027285
242,2026-05-11 16:09:23.876703,0.4856381,-0.055430062,1.1527503,0.1695151,0.4529566,-0.15027285
243,2026-05-11 16:09:23.879709,0.4856381,-0.055430062,1.1527503,0.1695151,0.4529566,-0.15027285
244,2026-05-11 16:09:23.883174,0.4856381,-0.055430062,1.1527503,0.1695151,0.4529566,-0.15027285
245,2026-05-11 16:09:23.887103,0.4856381,-0.055430062,1.1527503,0.1695151,0.4529566,-0.15027285
246,2026-05-11 16:09:23.890623,0.4856381,-0.055430062,1.1527503,0.1695151,0.4529566,-0.15027285
247,2026-05-11 16:09:23.893514,0.4856381,-0.055430062,1.1527503,0.1695151,0.4529566,-0.15027285
248,2026-05-11 16:09:23.896653,0.4856381,-0.055430062,1.1527503,0.1695151,0.4529566,-0.15027285
249,2026-05-11 16:09:23.899795,0.4856381,-0.055430062,1.1527503,0.1695151,0.4529566,-0.15027285
250,2026-05-11 16:09:23.903635,0.4856381,-0.055430062,1.1527503,0.1695151,0.4529566,-0.15027285
251,2026-05-11 16:09:23.906586,0.4856381,-0.055430062,1.1527503,0.1695151,0.4529566,-0.15027285
252,2026-05-11 16:09:23.914158,0.4856381,-0.055430062,1.1527503,0.1695151,0.4529566,-0.15027285
253,2026-05-11 16:09:23.945004,0.4856381,-0.055430062,1.1527503,0.1695151,0.4529566,-0.15027285
254,2026-05-11 16:09:23.955986,0.4856381,-0.055430062,1.1527503,0.16493362,0.5112942,-0.1337795
255,2026-05-11 16:09:23.959316,0.4856381,-0.055430062,1.1527503,0.16493362,0.5112942,-0.1337795
256,2026-05-11 16:09:23.962388,0.4856381,-0.055430062,1.1527503,0.16493362,0.5112942,-0.1337795
257,2026-05-11 16:09:23.965356,0.4856381,-0.055430062,1.1527503,0.16493362,0.5112942,-0.1337795
258,2026-05-11 16:09:23.969243,0.48710158,-0.03640456,1.156226,0.16493362,0.5112942,-0.1337795
259,2026-05-11 16:09:23.972281,0.48710158,-0.03640456,1.156226,0.16493362,0.5112942,-0.1337795
260,2026-05-11 16:09:23.975350,0.48710158,-0.03640456,1.156226,0.16493362,0.5112942,-0.1337795
261,2026-05-11 16:09:23.978975,0.48710158,-0.03640456,1.156226,0.10598512,0.5893322,-0.11575896
262,2026-05-11 16:09:23.991264,0.5793021,-0.24080674,2.4890478,1.3464997,3.2452216,-0.10323623
263,2026-05-11 16:09:23.995378,0.5793021,-0.24080674,2.4890478,1.3464997,3.2452216,-0.10323623
264,2026-05-11 16:09:23.998690,0.5793021,-0.24080674,2.4890478,1.3464997,3.2452216,-0.10323623
265,2026-05-11 16:09:24.003520,0.5793021,-0.24080674,2.4890478,1.3464997,3.2452216,-0.10323623
266,2026-05-11 16:09:24.006834,0.5793021,-0.24080674,2.4890478,1.3464997,3.2452216,-0.10323623
267,2026-05-11 16:09:24.009816,0.5753994,-0.25123417,2.5041094,1.3464997,3.2452216,-0.10323623
268,2026-05-11 16:09:24.012745,0.5753994,-0.25123417,2.5041094,1.3464997,3.2452216,-0.10323623
269,2026-05-11 16:09:24.015626,0.5753994,-0.25123417,2.5041094,1.3464997,3.2452216,-0.10323623
270,2026-05-11 16:09:24.019128,0.5753994,-0.25123417,2.5041094,1.3464997,3.2452216,-0.10323623
271,2026-05-11 16:09:24.022479,0.5753994,-0.25123417,2.5041094,1.3464997,3.2452216,-0.10323623
272,2026-05-11 16:09:24.025621,0.5753994,-0.25123417,2.5041094,1.3464997,3.2452216,-0.10323623
273,2026-05-11 16:09:24.029284,0.5753994,-0.25123417,2.5041094,1.3464997,3.2452216,-0.10323623
274,2026-05-11 16:09:24.036371,0.5753994,-0.25123417,2.5041094,1.3464997,3.2452216,-0.10323623
275,2026-05-11 16:09:24.041208,0.5753994,-0.25123417,2.5041094,1.3464997,3.2452216,-0.10323623
276,2026-05-11 16:09:24.044978,0.5753994,-0.25123417,2.5041094,1.3464997,3.2452216,-0.10323623
277,2026-05-11 16:09:24.048176,0.5753994,-0.25123417,2.5041094,1.3464997,3.2452216,-0.10323623
278,2026-05-11 16:09:24.052595,0.6424155,-0.28465074,2.4248977,1.3464997,3.2452216,-0.10323623
279,2026-05-11 16:09:24.055813,0.6424155,-0.28465074,2.4248977,2.0624337,3.5187366,-0.015271631
280,2026-05-11 16:09:24.058873,0.62076795,-0.28507763,2.309464,2.0624337,3.5187366,-0.015271631
281,2026-05-11 16:09:24.062387,0.62076795,-0.28507763,2.309464,2.0624337,3.5187366,-0.015271631
282,2026-05-11 16:09:24.065432,0.62076795,-0.28507763,2.309464,2.5399778,3.7982073,0.0047342055
283,2026-05-11 16:09:24.068824,0.62076795,-0.28507763,2.309464,2.5399778,3.7982073,0.0047342055
284,2026-05-11 16:09:24.071705,0.62076795,-0.28507763,2.309464,2.5399778,3.7982073,0.0047342055
285,2026-05-11 16:09:24.074379,0.62076795,-0.28507763,2.309464,2.5399778,3.7982073,0.0047342055
286,2026-05-11 16:09:24.077094,0.62076795,-0.28507763,2.309464,2.5399778,3.7982073,0.0047342055
287,2026-05-11 16:09:24.080160,0.62076795,-0.28507763,2.309464,2.5399778,3.7982073,0.0047342055
288,2026-05-11 16:09:24.082944,0.62076795,-0.28507763,2.309464,2.5399778,3.7982073,0.0047342055
289,2026-05-11 16:09:24.087160,0.62076795,-0.28507763,2.309464,2.5399778,3.7982073,0.0047342055
290,2026-05-11 16:09:24.089972,0.62076795,-0.28507763,2.309464,2.5399778,3.7982073,0.0047342055
291,2026-05-11 16:09:24.092612,0.62076795,-0.28507763,2.309464,2.5399778,3.7982073,0.0047342055
292,2026-05-11 16:09:24.095436,0.62076795,-0.28507763,2.309464,2.5399778,3.7982073,0.0047342055
293,2026-05-11 16:09:24.098075,0.62076795,-0.28507763,2.309464,2.5399778,3.7982073,0.0047342055
294,2026-05-11 16:09:24.101264,0.62076795,-0.28507763,2.309464,2.5399778,3.7982073,0.0047342055
295,2026-05-11 16:09:24.104086,0.62076795,-0.28507763,2.309464,2.5399778,3.7982073,0.0047342055
296,2026-05-11 16:09:24.106719,0.62076795,-0.28507763,2.309464,2.5399778,3.7982073,0.0047342055
297,2026-05-11 16:09:24.109272,0.62076795,-0.28507763,2.309464,2.5399778,3.7982073,0.0047342055
298,2026-05-11 16:09:24.111982,0.62076795,-0.28507763,2.309464,2.5399778,3.7982073,0.0047342055
299,2026-05-11 16:09:24.114536,0.62076795,-0.28507763,2.309464,2.5399778,3.7982073,0.0047342055
300,2026-05-11 16:09:24.117694,0.62076795,-0.28507763,2.309464,2.5399778,3.7982073,0.0047342055
301,2026-05-11 16:09:24.120609,0.62076795,-0.28507763,2.309464,2.5399778,3.7982073,0.0047342055
302,2026-05-11 16:09:24.123332,0.62076795,-0.28507763,2.309464,2.5399778,3.7982073,0.0047342055
303,2026-05-11 16:09:24.125921,0.62076795,-0.28507763,2.309464,2.5399778,3.7982073,0.0047342055
304,2026-05-11 16:09:24.128711,0.62076795,-0.28507763,2.309464,2.5399778,3.7982073,0.0047342055
305,2026-05-11 16:09:24.131283,0.62076795,-0.28507763,2.309464,2.5399778,3.7982073,0.0047342055
306,2026-05-11 16:09:24.134159,0.62076795,-0.28507763,2.309464,2.5399778,3.7982073,0.0047342055
307,2026-05-11 16:09:24.136988,0.62076795,-0.28507763,2.309464,2.5399778,3.7982073,0.0047342055
308,2026-05-11 16:09:24.139545,0.62076795,-0.28507763,2.309464,2.5399778,3.7982073,0.0047342055
309,2026-05-11 16:09:24.142180,0.62076795,-0.28507763,2.309464,2.5399778,3.7982073,0.0047342055
310,2026-05-11 16:09:24.144768,0.62076795,-0.28507763,2.309464,2.5399778,3.7982073,0.0047342055
311,2026-05-11 16:09:24.147298,0.62076795,-0.28507763,2.309464,2.5399778,3.7982073,0.0047342055
312,2026-05-11 16:09:24.150330,0.62076795,-0.28507763,2.309464,2.5399778,3.7982073,0.0047342055
313,2026-05-11 16:09:24.153257,0.62076795,-0.28507763,2.309464,2.5399778,3.7982073,0.0047342055
314,2026-05-11 16:09:24.155994,0.64583033,-0.26519838,2.2243981,2.769663,3.930307,0.028863383
315,2026-05-11 16:09:24.158575,0.64583033,-0.26519838,2.2243981,2.769663,3.930307,0.028863383
316,2026-05-11 16:09:24.161297,0.64583033,-0.26519838,2.2243981,2.769663,3.930307,0.028863383
317,2026-05-11 16:09:24.163852,0.64583033,-0.26519838,2.2243981,2.769663,3.930307,0.028863383
318,2026-05-11 16:09:24.166882,0.64583033,-0.26519838,2.2243981,2.769663,3.930307,0.028863383
319,2026-05-11 16:09:24.169610,0.64583033,-0.26519838,2.2243981,2.769663,3.930307,0.028863383
320,2026-05-11 16:09:24.172205,0.64583033,-0.26519838,2.2243981,2.769663,3.930307,0.028863383
321,2026-05-11 16:09:24.174856,0.64583033,-0.26519838,2.2243981,2.769663,3.930307,0.028863383
322,2026-05-11 16:09:24.177542,0.79827833,-0.21287827,2.1243312,2.769663,3.930307,0.028863383
323,2026-05-11 16:09:24.180242,0.79827833,-0.21287827,2.1243312,2.769663,3.930307,0.028863383
324,2026-05-11 16:09:24.182854,0.79827833,-0.21287827,2.1243312,2.769663,3.930307,0.028863383
325,2026-05-11 16:09:24.186017,0.79827833,-0.21287827,2.1243312,2.769663,3.930307,0.028863383
326,2026-05-11 16:09:24.188642,0.79827833,-0.21287827,2.1243312,2.769663,3.930307,0.028863383
327,2026-05-11 16:09:24.191191,0.79827833,-0.21287827,2.1243312,2.769663,3.930307,0.028863383
328,2026-05-11 16:09:24.193753,0.79827833,-0.21287827,2.1243312,2.769663,3.930307,0.028863383
329,2026-05-11 16:09:24.196520,0.79827833,-0.21287827,2.1243312,2.769663,3.930307,0.028863383
330,2026-05-11 16:09:24.199182,0.79827833,-0.21287827,2.1243312,2.769663,3.930307,0.028863383
331,2026-05-11 16:09:24.202093,0.79827833,-0.21287827,2.1243312,2.769663,3.930307,0.028863383
332,2026-05-11 16:09:24.204809,0.79827833,-0.21287827,2.1243312,2.769663,3.930307,0.028863383
333,2026-05-11 16:09:24.207413,0.79827833,-0.21287827,2.1243312,2.769663,3.930307,0.028863383
334,2026-05-11 16:09:24.210017,0.79827833,-0.21287827,2.1243312,2.769663,3.930307,0.028863383
335,2026-05-11 16:09:24.212774,0.79827833,-0.21287827,2.1243312,2.769663,3.930307,0.028863383
336,2026-05-11 16:09:24.215344,0.79827833,-0.21287827,2.1243312,2.769663,3.930307,0.028863383
337,2026-05-11 16:09:24.218638,0.79827833,-0.21287827,2.1243312,2.769663,3.930307,0.028863383
338,2026-05-11 16:09:24.221307,0.79827833,-0.21287827,2.1243312,2.769663,3.930307,0.028863383
339,2026-05-11 16:09:24.223865,0.79827833,-0.21287827,2.1243312,2.769663,3.930307,0.028863383
340,2026-05-11 16:09:24.226457,0.79827833,-0.21287827,2.1243312,2.769663,3.930307,0.028863383
341,2026-05-11 16:09:24.228977,0.79827833,-0.21287827,2.1243312,2.769663,3.930307,0.028863383
342,2026-05-11 16:09:24.231511,0.79827833,-0.21287827,2.1243312,2.769663,3.930307,0.028863383
343,2026-05-11 16:09:24.234674,0.79827833,-0.21287827,2.1243312,2.769663,3.930307,0.028863383
344,2026-05-11 16:09:24.237475,0.79827833,-0.21287827,2.1243312,2.769663,3.930307,0.028863383
345,2026-05-11 16:09:24.240225,0.79827833,-0.21287827,2.1243312,2.769663,3.930307,0.028863383
346,2026-05-11 16:09:24.242879,0.79827833,-0.21287827,2.1243312,2.769663,3.930307,0.028863383
347,2026-05-11 16:09:24.245417,0.79827833,-0.21287827,2.1243312,2.769663,3.930307,0.028863383
348,2026-05-11 16:09:24.248216,0.79827833,-0.21287827,2.1243312,2.769663,3.930307,0.028863383
349,2026-05-11 16:09:24.251238,0.79827833,-0.21287827,2.1243312,2.769663,3.930307,0.028863383
350,2026-05-11 16:09:24.253947,0.79827833,-0.21287827,2.1243312,2.769663,3.930307,0.028863383
351,2026-05-11 16:09:24.256626,0.79827833,-0.21287827,2.1243312,2.769663,3.930307,0.028863383
352,2026-05-11 16:09:24.259167,0.79827833,-0.21287827,2.1243312,2.769663,3.930307,0.028863383
353,2026-05-11 16:09:24.261793,0.79827833,-0.21287827,2.1243312,2.769663,3.930307,0.028863383
354,2026-05-11 16:09:24.264313,0.79827833,-0.21287827,2.1243312,2.769663,3.930307,0.028863383
355,2026-05-11 16:09:24.267376,0.79827833,-0.21287827,2.1243312,2.769663,3.930307,0.028863383
356,2026-05-11 16:09:24.270212,0.79827833,-0.21287827,2.1243312,2.769663,3.930307,0.028863383
357,2026-05-11 16:09:24.272902,0.79827833,-0.21287827,2.1243312,2.769663,3.930307,0.028863383
358,2026-05-11 16:09:24.275475,0.79827833,-0.21287827,2.1243312,2.769663,3.930307,0.028863383
359,2026-05-11 16:09:24.278050,0.79827833,-0.21287827,2.1243312,2.769663,3.930307,0.028863383
360,2026-05-11 16:09:24.280551,0.79827833,-0.21287827,2.1243312,2.769663,3.930307,0.028863383
361,2026-05-11 16:09:24.283309,0.79827833,-0.21287827,2.1243312,2.769663,3.930307,0.028863383
362,2026-05-11 16:09:24.286352,0.79827833,-0.21287827,2.1243312,3.172376,4.0190353,-0.05299256
363,2026-05-11 16:09:24.288951,0.79827833,-0.21287827,2.1243312,3.172376,4.0190353,-0.05299256
364,2026-05-11 16:09:24.291611,0.79827833,-0.21287827,2.1243312,3.172376,4.0190353,-0.05299256
365,2026-05-11 16:09:24.294145,0.79827833,-0.21287827,2.1243312,3.172376,4.0190353,-0.05299256
366,2026-05-11 16:09:24.296708,0.79827833,-0.21287827,2.1243312,3.172376,4.0190353,-0.05299256
367,2026-05-11 16:09:24.299251,0.79827833,-0.21287827,2.1243312,3.172376,4.0190353,-0.05299256
368,2026-05-11 16:09:24.302416,0.79827833,-0.21287827,2.1243312,3.172376,4.0190353,-0.05299256
369,2026-05-11 16:09:24.305182,0.79827833,-0.21287827,2.1243312,3.172376,4.0190353,-0.05299256
370,2026-05-11 16:09:24.307763,0.79827833,-0.21287827,2.1243312,3.172376,4.0190353,-0.05299256
371,2026-05-11 16:09:24.310280,0.79827833,-0.21287827,2.1243312,3.172376,4.0190353,-0.05299256
372,2026-05-11 16:09:24.312916,0.79827833,-0.21287827,2.1243312,3.172376,4.0190353,-0.05299256
373,2026-05-11 16:09:24.315440,0.79827833,-0.21287827,2.1243312,3.172376,4.0190353,-0.05299256
374,2026-05-11 16:09:24.318588,0.79827833,-0.21287827,2.1243312,3.172376,4.0190353,-0.05299256
375,2026-05-11 16:09:24.321275,0.79827833,-0.21287827,2.1243312,3.172376,4.0190353,-0.05299256
376,2026-05-11 16:09:24.323875,0.79827833,-0.21287827,2.1243312,3.172376,4.0190353,-0.05299256
377,2026-05-11 16:09:24.326465,0.79827833,-0.21287827,2.1243312,3.172376,4.0190353,-0.05299256
378,2026-05-11 16:09:24.329340,0.79827833,-0.21287827,2.1243312,3.172376,4.0190353,-0.05299256
379,2026-05-11 16:09:24.331931,0.79827833,-0.21287827,2.1243312,3.172376,4.0190353,-0.05299256
380,2026-05-11 16:09:24.335119,0.79827833,-0.21287827,2.1243312,3.172376,4.0190353,-0.05299256
381,2026-05-11 16:09:24.337854,0.79827833,-0.21287827,2.1243312,3.172376,4.0190353,-0.05299256
382,2026-05-11 16:09:24.340453,0.79827833,-0.21287827,2.1243312,3.172376,4.0190353,-0.05299256
383,2026-05-11 16:09:24.343296,0.79827833,-0.21287827,2.1243312,3.172376,4.0190353,-0.05299256
384,2026-05-11 16:09:24.345906,0.79827833,-0.21287827,2.1243312,3.172376,4.0190353,-0.05299256
385,2026-05-11 16:09:24.348621,0.79827833,-0.21287827,2.1243312,3.172376,4.0190353,-0.05299256
386,2026-05-11 16:09:24.351651,0.79827833,-0.21287827,2.1243312,3.172376,4.0190353,-0.05299256
387,2026-05-11 16:09:24.354478,0.79827833,-0.21287827,2.1243312,3.172376,4.0190353,-0.05299256
388,2026-05-11 16:09:24.357095,0.79827833,-0.21287827,2.1243312,3.172376,4.0190353,-0.05299256
389,2026-05-11 16:09:24.359658,0.79827833,-0.21287827,2.1243312,3.172376,4.0190353,-0.05299256
390,2026-05-11 16:09:24.362364,0.79827833,-0.21287827,2.1243312,3.172376,4.0190353,-0.05299256
391,2026-05-11 16:09:24.364920,0.79827833,-0.21287827,2.1243312,3.172376,4.0190353,-0.05299256
392,2026-05-11 16:09:24.367996,0.79827833,-0.21287827,2.1243312,3.172376,4.0190353,-0.05299256
393,2026-05-11 16:09:24.370712,0.79827833,-0.21287827,2.1243312,3.172376,4.0190353,-0.05299256
394,2026-05-11 16:09:24.373412,0.79827833,-0.21287827,2.1243312,3.172376,4.0190353,-0.05299256
395,2026-05-11 16:09:24.376010,0.79827833,-0.21287827,2.1243312,3.172376,4.0190353,-0.05299256
396,2026-05-11 16:09:24.378539,0.79827833,-0.21287827,2.1243312,3.172376,4.0190353,-0.05299256
397,2026-05-11 16:09:24.381189,0.79827833,-0.21287827,2.1243312,3.172376,4.0190353,-0.05299256
398,2026-05-11 16:09:24.384032,0.79827833,-0.21287827,2.1243312,3.172376,4.0190353,-0.05299256
399,2026-05-11 16:09:24.386733,0.79827833,-0.21287827,2.1243312,3.172376,4.0190353,-0.05299256
400,2026-05-11 16:09:24.389344,0.79827833,-0.21287827,2.1243312,3.172376,4.0190353,-0.05299256
401,2026-05-11 16:09:24.391892,0.79827833,-0.21287827,2.1243312,3.172376,4.0190353,-0.05299256
402,2026-05-11 16:09:24.394713,0.78541166,-0.21641506,1.9772495,3.172376,4.0190353,-0.05299256
403,2026-05-11 16:09:24.397330,0.78541166,-0.21641506,1.9772495,3.172376,4.0190353,-0.05299256
404,2026-05-11 16:09:24.400315,0.78541166,-0.21641506,1.9772495,3.172376,4.0190353,-0.05299256
405,2026-05-11 16:09:24.403280,0.78541166,-0.21641506,1.9772495,3.172376,4.0190353,-0.05299256
406,2026-05-11 16:09:24.405862,0.78541166,-0.21641506,1.9772495,3.172376,4.0190353,-0.05299256
407,2026-05-11 16:09:24.408427,0.78541166,-0.21641506,1.9772495,3.172376,4.0190353,-0.05299256
408,2026-05-11 16:09:24.411194,0.78541166,-0.21641506,1.9772495,3.172376,4.0190353,-0.05299256
409,2026-05-11 16:09:24.413783,0.78541166,-0.21641506,1.9772495,3.172376,4.0190353,-0.05299256
410,2026-05-11 16:09:24.416783,0.78541166,-0.21641506,1.9772495,3.172376,4.0190353,-0.05299256
411,2026-05-11 16:09:24.419760,0.78541166,-0.21641506,1.9772495,3.172376,4.0190353,-0.05299256
412,2026-05-11 16:09:24.422349,0.78541166,-0.21641506,1.9772495,3.172376,4.0190353,-0.05299256
413,2026-05-11 16:09:24.425003,0.78541166,-0.21641506,1.9772495,3.172376,4.0190353,-0.05299256
414,2026-05-11 16:09:24.427598,0.78541166,-0.21641506,1.9772495,3.172376,4.0190353,-0.05299256
415,2026-05-11 16:09:24.430330,0.78541166,-0.21641506,1.9772495,3.172376,4.0190353,-0.05299256
416,2026-05-11 16:09:24.432942,0.78541166,-0.21641506,1.9772495,3.172376,4.0190353,-0.05299256
417,2026-05-11 16:09:24.436196,0.78541166,-0.21641506,1.9772495,3.172376,4.0190353,-0.05299256
418,2026-05-11 16:09:24.438911,0.78541166,-0.21641506,1.9772495,3.172376,4.0190353,-0.05299256
419,2026-05-11 16:09:24.441530,0.78541166,-0.21641506,1.9772495,3.172376,4.0190353,-0.05299256
420,2026-05-11 16:09:24.444166,0.78541166,-0.21641506,1.9772495,3.172376,4.0190353,-0.05299256
421,2026-05-11 16:09:24.446724,0.78541166,-0.21641506,1.9772495,3.172376,4.0190353,-0.05299256
422,2026-05-11 16:09:24.449628,0.78541166,-0.21641506,1.9772495,3.4283285,4.0908117,-0.2762638
423,2026-05-11 16:09:24.452735,0.78541166,-0.21641506,1.9772495,3.4283285,4.0908117,-0.2762638
424,2026-05-11 16:09:24.455431,0.78541166,-0.21641506,1.9772495,3.4283285,4.0908117,-0.2762638
425,2026-05-11 16:09:24.458025,0.78541166,-0.21641506,1.9772495,3.4283285,4.0908117,-0.2762638
426,2026-05-11 16:09:24.460578,0.78541166,-0.21641506,1.9772495,3.4283285,4.0908117,-0.2762638
427,2026-05-11 16:09:24.463289,0.78541166,-0.21641506,1.9772495,3.4283285,4.0908117,-0.2762638
428,2026-05-11 16:09:24.465857,0.78541166,-0.21641506,1.9772495,3.4283285,4.0908117,-0.2762638
429,2026-05-11 16:09:24.468932,0.78541166,-0.21641506,1.9772495,3.4283285,4.0908117,-0.2762638
430,2026-05-11 16:09:24.471706,0.78541166,-0.21641506,1.9772495,3.4283285,4.0908117,-0.2762638
431,2026-05-11 16:09:24.474297,0.78541166,-0.21641506,1.9772495,3.4283285,4.0908117,-0.2762638
432,2026-05-11 16:09:24.477036,0.78541166,-0.21641506,1.9772495,3.4283285,4.0908117,-0.2762638
433,2026-05-11 16:09:24.479581,0.78541166,-0.21641506,1.9772495,3.4283285,4.0908117,-0.2762638
434,2026-05-11 16:09:24.482249,0.78541166,-0.21641506,1.9772495,3.4283285,4.0908117,-0.2762638
435,2026-05-11 16:09:24.485123,0.78541166,-0.21641506,1.9772495,3.4283285,4.0908117,-0.2762638
436,2026-05-11 16:09:24.487768,0.78541166,-0.21641506,1.9772495,3.4283285,4.0908117,-0.2762638
437,2026-05-11 16:09:24.490327,0.78541166,-0.21641506,1.9772495,3.4283285,4.0908117,-0.2762638
438,2026-05-11 16:09:24.492846,0.78541166,-0.21641506,1.9772495,3.4283285,4.0908117,-0.2762638
439,2026-05-11 16:09:24.495622,0.78541166,-0.21641506,1.9772495,3.4283285,4.0908117,-0.2762638
440,2026-05-11 16:09:24.498180,0.78541166,-0.21641506,1.9772495,3.4283285,4.0908117,-0.2762638
441,2026-05-11 16:09:24.501068,0.78541166,-0.21641506,1.9772495,3.4283285,4.0908117,-0.2762638
442,2026-05-11 16:09:24.503739,0.78541166,-0.21641506,1.9772495,3.4283285,4.0908117,-0.2762638
443,2026-05-11 16:09:24.506257,0.78541166,-0.21641506,1.9772495,3.4283285,4.0908117,-0.2762638
444,2026-05-11 16:09:24.508772,0.78541166,-0.21641506,1.9772495,3.4283285,4.0908117,-0.2762638
445,2026-05-11 16:09:24.511507,0.78541166,-0.21641506,1.9772495,3.4283285,4.0908117,-0.2762638
446,2026-05-11 16:09:24.514091,0.78541166,-0.21641506,1.9772495,3.4283285,4.0908117,-0.2762638
447,2026-05-11 16:09:24.517224,0.78541166,-0.21641506,1.9772495,3.4283285,4.0908117,-0.2762638
448,2026-05-11 16:09:24.520076,0.78541166,-0.21641506,1.9772495,3.4283285,4.0908117,-0.2762638
449,2026-05-11 16:09:24.522604,0.78541166,-0.21641506,1.9772495,3.4283285,4.0908117,-0.2762638
450,2026-05-11 16:09:24.525160,0.78541166,-0.21641506,1.9772495,3.4283285,4.0908117,-0.2762638
451,2026-05-11 16:09:24.527977,0.78541166,-0.21641506,1.9772495,3.4283285,4.0908117,-0.2762638
452,2026-05-11 16:09:24.530650,0.78541166,-0.21641506,1.9772495,3.4283285,4.0908117,-0.2762638
453,2026-05-11 16:09:24.533686,0.78541166,-0.21641506,1.9772495,3.4283285,4.0908117,-0.2762638
454,2026-05-11 16:09:24.536451,0.78541166,-0.21641506,1.9772495,3.4283285,4.0908117,-0.2762638
455,2026-05-11 16:09:24.539183,0.78541166,-0.21641506,1.9772495,3.4283285,4.0908117,-0.2762638
456,2026-05-11 16:09:24.541745,0.78541166,-0.21641506,1.9772495,3.4283285,4.0908117,-0.2762638
457,2026-05-11 16:09:24.544550,0.78541166,-0.21641506,1.9772495,3.4283285,4.0908117,-0.2762638
458,2026-05-11 16:09:24.547164,0.78541166,-0.21641506,1.9772495,3.4283285,4.0908117,-0.2762638
459,2026-05-11 16:09:24.550077,0.78541166,-0.21641506,1.9772495,3.4283285,4.0908117,-0.2762638
460,2026-05-11 16:09:24.552992,0.78541166,-0.21641506,1.9772495,3.4283285,4.0908117,-0.2762638
461,2026-05-11 16:09:24.555602,0.78541166,-0.21641506,1.9772495,3.4283285,4.0908117,-0.2762638
462,2026-05-11 16:09:24.558316,0.78541166,-0.21641506,1.9772495,3.4283285,4.0908117,-0.2762638
463,2026-05-11 16:09:24.560870,0.78541166,-0.21641506,1.9772495,3.4283285,4.0908117,-0.2762638
464,2026-05-11 16:09:24.563582,0.78541166,-0.21641506,1.9772495,3.4283285,4.0908117,-0.2762638
465,2026-05-11 16:09:24.566217,0.78541166,-0.21641506,1.9772495,3.4283285,4.0908117,-0.2762638
466,2026-05-11 16:09:24.569447,0.78541166,-0.21641506,1.9772495,3.4283285,4.0908117,-0.2762638
467,2026-05-11 16:09:24.572183,0.78541166,-0.21641506,1.9772495,3.4257324,4.3408084,-0.40698898
468,2026-05-11 16:09:24.574800,0.78541166,-0.21641506,1.9772495,3.4257324,4.3408084,-0.40698898
469,2026-05-11 16:09:24.577719,0.78541166,-0.21641506,1.9772495,3.4257324,4.3408084,-0.40698898
470,2026-05-11 16:09:24.580363,0.78541166,-0.21641506,1.9772495,3.4257324,4.3408084,-0.40698898
471,2026-05-11 16:09:24.583332,0.5457026,-0.20489,1.8049834,3.4257324,4.3408084,-0.40698898
472,2026-05-11 16:09:24.586246,0.5457026,-0.20489,1.8049834,3.4257324,4.3408084,-0.40698898
473,2026-05-11 16:09:24.588863,0.5457026,-0.20489,1.8049834,3.4257324,4.3408084,-0.40698898
474,2026-05-11 16:09:24.591468,0.5457026,-0.20489,1.8049834,3.4257324,4.3408084,-0.40698898
475,2026-05-11 16:09:24.594029,0.5457026,-0.20489,1.8049834,3.4257324,4.3408084,-0.40698898
476,2026-05-11 16:09:24.596593,0.5457026,-0.20489,1.8049834,3.4257324,4.3408084,-0.40698898
477,2026-05-11 16:09:24.599419,0.5457026,-0.20489,1.8049834,3.4257324,4.3408084,-0.40698898
478,2026-05-11 16:09:24.602367,0.5457026,-0.20489,1.8049834,3.4257324,4.3408084,-0.40698898
479,2026-05-11 16:09:24.605001,0.5457026,-0.20489,1.8049834,3.4257324,4.3408084,-0.40698898
480,2026-05-11 16:09:24.607609,0.5457026,-0.20489,1.8049834,3.4257324,4.3408084,-0.40698898
481,2026-05-11 16:09:24.610178,0.5457026,-0.20489,1.8049834,3.4257324,4.3408084,-0.40698898
482,2026-05-11 16:09:24.612788,0.5457026,-0.20489,1.8049834,3.4257324,4.3408084,-0.40698898
483,2026-05-11 16:09:24.615324,0.5457026,-0.20489,1.8049834,3.4257324,4.3408084,-0.40698898
484,2026-05-11 16:09:24.618356,0.5457026,-0.20489,1.8049834,3.4257324,4.3408084,-0.40698898
485,2026-05-11 16:09:24.621138,0.5457026,-0.20489,1.8049834,3.4257324,4.3408084,-0.40698898
486,2026-05-11 16:09:24.623725,0.5457026,-0.20489,1.8049834,3.4257324,4.3408084,-0.40698898
487,2026-05-11 16:09:24.626335,0.5457026,-0.20489,1.8049834,3.4257324,4.3408084,-0.40698898
488,2026-05-11 16:09:24.628955,0.5457026,-0.20489,1.8049834,3.4257324,4.3408084,-0.40698898
489,2026-05-11 16:09:24.631542,0.38051,-0.21739073,1.712234,3.4257324,4.3408084,-0.40698898
490,2026-05-11 16:09:24.634841,0.38051,-0.21739073,1.712234,3.4257324,4.3408084,-0.40698898
491,2026-05-11 16:09:24.637622,0.38051,-0.21739073,1.712234,3.4257324,4.3408084,-0.40698898
492,2026-05-11 16:09:24.640347,0.38051,-0.21739073,1.712234,3.4257324,4.3408084,-0.40698898
493,2026-05-11 16:09:24.642934,0.38051,-0.21739073,1.712234,3.4257324,4.3408084,-0.40698898
494,2026-05-11 16:09:24.645687,0.38051,-0.21739073,1.712234,3.4257324,4.3408084,-0.40698898
495,2026-05-11 16:09:24.648267,0.38051,-0.21739073,1.712234,3.4257324,4.3408084,-0.40698898
496,2026-05-11 16:09:24.651112,0.38051,-0.21739073,1.712234,3.4257324,4.3408084,-0.40698898
497,2026-05-11 16:09:24.653856,0.38051,-0.21739073,1.712234,3.4257324,4.3408084,-0.40698898
498,2026-05-11 16:09:24.656402,0.38051,-0.21739073,1.712234,3.4257324,4.3408084,-0.40698898
499,2026-05-11 16:09:24.659005,0.38051,-0.21739073,1.712234,3.4257324,4.3408084,-0.40698898
500,2026-05-11 16:09:24.661733,0.38051,-0.21739073,1.712234,3.4257324,4.3408084,-0.40698898
501,2026-05-11 16:09:24.664332,0.38051,-0.21739073,1.712234,3.4257324,4.3408084,-0.40698898
502,2026-05-11 16:09:24.667514,0.38051,-0.21739073,1.712234,3.4257324,4.3408084,-0.40698898
503,2026-05-11 16:09:24.670248,0.38051,-0.21739073,1.712234,3.4257324,4.3408084,-0.40698898
504,2026-05-11 16:09:24.672868,0.38051,-0.21739073,1.712234,3.4257324,4.3408084,-0.40698898
505,2026-05-11 16:09:24.675492,0.38051,-0.21739073,1.712234,3.4257324,4.3408084,-0.40698898
506,2026-05-11 16:09:24.678232,0.38051,-0.21739073,1.712234,3.2217033,4.749019,-0.25961772
507,2026-05-11 16:09:24.680793,0.38051,-0.21739073,1.712234,3.2217033,4.749019,-0.25961772
508,2026-05-11 16:09:24.683981,0.38051,-0.21739073,1.712234,3.2217033,4.749019,-0.25961772
509,2026-05-11 16:09:24.686743,0.38051,-0.21739073,1.712234,3.2217033,4.749019,-0.25961772
510,2026-05-11 16:09:24.689356,0.38051,-0.21739073,1.712234,3.2217033,4.749019,-0.25961772
511,2026-05-11 16:09:24.691943,0.38051,-0.21739073,1.712234,3.2217033,4.749019,-0.25961772
512,2026-05-11 16:09:24.694503,0.38051,-0.21739073,1.712234,3.2217033,4.749019,-0.25961772
513,2026-05-11 16:09:24.697294,0.38051,-0.21739073,1.712234,3.2217033,4.749019,-0.25961772
514,2026-05-11 16:09:24.700408,0.38051,-0.21739073,1.712234,3.2217033,4.749019,-0.25961772
515,2026-05-11 16:09:24.703328,0.38051,-0.21739073,1.712234,3.2217033,4.749019,-0.25961772
516,2026-05-11 16:09:24.705928,0.38051,-0.21739073,1.712234,3.2217033,4.749019,-0.25961772
517,2026-05-11 16:09:24.708528,0.38051,-0.21739073,1.712234,3.2217033,4.749019,-0.25961772
518,2026-05-11 16:09:24.711362,0.38051,-0.21739073,1.712234,3.2217033,4.749019,-0.25961772
519,2026-05-11 16:09:24.714070,0.38051,-0.21739073,1.712234,3.2217033,4.749019,-0.25961772
520,2026-05-11 16:09:24.717003,0.38051,-0.21739073,1.712234,3.2217033,4.749019,-0.25961772
521,2026-05-11 16:09:24.719786,0.38051,-0.21739073,1.712234,3.2217033,4.749019,-0.25961772
522,2026-05-11 16:09:24.722603,0.38051,-0.21739073,1.712234,3.2217033,4.749019,-0.25961772
523,2026-05-11 16:09:24.725209,0.38051,-0.21739073,1.712234,3.2217033,4.749019,-0.25961772
524,2026-05-11 16:09:24.728037,0.38051,-0.21739073,1.712234,3.2217033,4.749019,-0.25961772
525,2026-05-11 16:09:24.730653,0.38051,-0.21739073,1.712234,3.2217033,4.749019,-0.25961772
526,2026-05-11 16:09:24.733874,0.38051,-0.21739073,1.712234,3.2217033,4.749019,-0.25961772
527,2026-05-11 16:09:24.736770,0.38051,-0.21739073,1.712234,3.2217033,4.749019,-0.25961772
528,2026-05-11 16:09:24.739509,0.38051,-0.21739073,1.712234,3.2217033,4.749019,-0.25961772
529,2026-05-11 16:09:24.742097,0.38051,-0.21739073,1.712234,3.2217033,4.749019,-0.25961772
530,2026-05-11 16:09:24.744846,0.38051,-0.21739073,1.712234,3.2217033,4.749019,-0.25961772
531,2026-05-11 16:09:24.747427,0.38051,-0.21739073,1.712234,3.2217033,4.749019,-0.25961772
532,2026-05-11 16:09:24.750355,0.38051,-0.21739073,1.712234,3.2217033,4.749019,-0.25961772
533,2026-05-11 16:09:24.753206,0.38051,-0.21739073,1.712234,3.2217033,4.749019,-0.25961772
534,2026-05-11 16:09:24.755870,0.38051,-0.21739073,1.712234,3.2217033,4.749019,-0.25961772
535,2026-05-11 16:09:24.758525,0.38051,-0.21739073,1.712234,3.1005993,4.9646544,-0.09972375
536,2026-05-11 16:09:24.761254,0.38051,-0.21739073,1.712234,3.1005993,4.9646544,-0.09972375
537,2026-05-11 16:09:24.763831,0.38051,-0.21739073,1.712234,3.1005993,4.9646544,-0.09972375
538,2026-05-11 16:09:24.766872,0.38051,-0.21739073,1.712234,3.1005993,4.9646544,-0.09972375
539,2026-05-11 16:09:24.769630,0.38051,-0.21739073,1.712234,3.1005993,4.9646544,-0.09972375
540,2026-05-11 16:09:24.772239,0.38051,-0.21739073,1.712234,3.1005993,4.9646544,-0.09972375
541,2026-05-11 16:09:24.774832,0.38051,-0.21739073,1.712234,3.1005993,4.9646544,-0.09972375
542,2026-05-11 16:09:24.777451,0.38051,-0.21739073,1.712234,3.1005993,4.9646544,-0.09972375
543,2026-05-11 16:09:24.780100,0.38051,-0.21739073,1.712234,3.1005993,4.9646544,-0.09972375
544,2026-05-11 16:09:24.782714,0.38051,-0.21739073,1.712234,3.1005993,4.9646544,-0.09972375
545,2026-05-11 16:09:24.786129,0.38051,-0.21739073,1.712234,3.1005993,4.9646544,-0.09972375
546,2026-05-11 16:09:24.788830,0.38051,-0.21739073,1.712234,3.1005993,4.9646544,-0.09972375
547,2026-05-11 16:09:24.791441,0.38051,-0.21739073,1.712234,3.1005993,4.9646544,-0.09972375
548,2026-05-11 16:09:24.794023,0.38051,-0.21739073,1.712234,3.1005993,4.9646544,-0.09972375
549,2026-05-11 16:09:24.796772,0.38051,-0.21739073,1.712234,3.1005993,4.9646544,-0.09972375
550,2026-05-11 16:09:24.799457,0.38051,-0.21739073,1.712234,3.1005993,4.9646544,-0.09972375
551,2026-05-11 16:09:24.802576,0.38051,-0.21739073,1.712234,3.1005993,4.9646544,-0.09972375
552,2026-05-11 16:09:24.805222,0.38051,-0.21739073,1.712234,3.1005993,4.9646544,-0.09972375
553,2026-05-11 16:09:24.808024,0.38051,-0.21739073,1.712234,3.1005993,4.9646544,-0.09972375
554,2026-05-11 16:09:24.810980,0.33038515,-0.22726935,1.6628408,2.9471195,5.2355733,0.19028452
555,2026-05-11 16:09:24.813621,0.33038515,-0.22726935,1.6628408,2.9471195,5.2355733,0.19028452
556,2026-05-11 16:09:24.816285,0.33038515,-0.22726935,1.6628408,2.9471195,5.2355733,0.19028452
557,2026-05-11 16:09:24.819517,0.33038515,-0.22726935,1.6628408,2.9471195,5.2355733,0.19028452
558,2026-05-11 16:09:24.822146,0.33038515,-0.22726935,1.6628408,2.9471195,5.2355733,0.19028452
559,2026-05-11 16:09:24.824851,0.46667355,-0.21330512,1.5962516,2.9471195,5.2355733,0.19028452
560,2026-05-11 16:09:24.827411,0.46667355,-0.21330512,1.5962516,2.9471195,5.2355733,0.19028452
561,2026-05-11 16:09:24.830162,0.46667355,-0.21330512,1.5962516,2.9471195,5.2355733,0.19028452
562,2026-05-11 16:09:24.832782,0.46667355,-0.21330512,1.5962516,2.9471195,5.2355733,0.19028452
563,2026-05-11 16:09:24.836407,0.46667355,-0.21330512,1.5962516,2.9471195,5.2355733,0.19028452
564,2026-05-11 16:09:24.839237,0.46667355,-0.21330512,1.5962516,2.9039006,5.2004485,0.21319197
565,2026-05-11 16:09:24.841890,0.46667355,-0.21330512,1.5962516,2.9039006,5.2004485,0.21319197
566,2026-05-11 16:09:24.844620,0.7574832,-0.14250831,1.58058,2.9039006,5.2004485,0.21319197
567,2026-05-11 16:09:24.847294,0.7574832,-0.14250831,1.58058,2.9039006,5.2004485,0.21319197
568,2026-05-11 16:09:24.850326,0.7574832,-0.14250831,1.58058,2.9039006,5.2004485,0.21319197
569,2026-05-11 16:09:24.853318,0.7574832,-0.14250831,1.58058,2.9039006,5.2004485,0.21319197
570,2026-05-11 16:09:24.855953,0.7574832,-0.14250831,1.58058,2.9039006,5.2004485,0.21319197
571,2026-05-11 16:09:24.858583,0.7574832,-0.14250831,1.58058,2.9039006,5.2004485,0.21319197
572,2026-05-11 16:09:24.861152,0.7574832,-0.14250831,1.58058,2.9039006,5.2004485,0.21319197
573,2026-05-11 16:09:24.863674,0.7574832,-0.14250831,1.58058,2.9039006,5.2004485,0.21319197
574,2026-05-11 16:09:24.866670,0.7574832,-0.14250831,1.58058,2.9039006,5.2004485,0.21319197
575,2026-05-11 16:09:24.869385,0.7574832,-0.14250831,1.58058,2.9039006,5.2004485,0.21319197
576,2026-05-11 16:09:24.872023,0.7574832,-0.14250831,1.58058,2.9039006,5.2004485,0.21319197
577,2026-05-11 16:09:24.874703,0.7574832,-0.14250831,1.58058,2.9039006,5.2004485,0.21319197
578,2026-05-11 16:09:24.877268,0.7574832,-0.14250831,1.58058,2.9039006,5.2004485,0.21319197
579,2026-05-11 16:09:24.879816,0.7574832,-0.14250831,1.58058,2.9039006,5.2004485,0.21319197
580,2026-05-11 16:09:24.882501,0.7574832,-0.14250831,1.58058,2.9039006,5.2004485,0.21319197
581,2026-05-11 16:09:24.885603,0.7574832,-0.14250831,1.58058,2.9039006,5.2004485,0.21319197
582,2026-05-11 16:09:24.888389,0.7574832,-0.14250831,1.58058,2.9039006,5.2004485,0.21319197
583,2026-05-11 16:09:24.891053,0.7574832,-0.14250831,1.58058,2.9039006,5.2004485,0.21319197
584,2026-05-11 16:09:24.893615,0.7574832,-0.14250831,1.58058,2.9039006,5.2004485,0.21319197
585,2026-05-11 16:09:24.896387,0.7574832,-0.14250831,1.58058,2.9039006,5.2004485,0.21319197
586,2026-05-11 16:09:24.898967,0.7574832,-0.14250831,1.58058,2.9039006,5.2004485,0.21319197
587,2026-05-11 16:09:24.902372,0.7574832,-0.14250831,1.58058,2.9039006,5.2004485,0.21319197
588,2026-05-11 16:09:24.905109,0.7574832,-0.14250831,1.58058,2.9039006,5.2004485,0.21319197
589,2026-05-11 16:09:24.907922,0.7574832,-0.14250831,1.58058,2.9039006,5.2004485,0.21319197
590,2026-05-11 16:09:24.910680,0.7574832,-0.14250831,1.58058,2.9039006,5.2004485,0.21319197
591,2026-05-11 16:09:24.913308,0.9058455,-0.10848194,1.5641766,2.9039006,5.2004485,0.21319197
592,2026-05-11 16:09:24.916159,0.9058455,-0.10848194,1.5641766,2.9039006,5.2004485,0.21319197
593,2026-05-11 16:09:24.919077,0.9058455,-0.10848194,1.5641766,2.9039006,5.2004485,0.21319197
594,2026-05-11 16:09:24.921805,0.9058455,-0.10848194,1.5641766,2.9039006,5.2004485,0.21319197
595,2026-05-11 16:09:24.924362,0.9058455,-0.10848194,1.5641766,2.9039006,5.2004485,0.21319197
596,2026-05-11 16:09:24.926920,0.9058455,-0.10848194,1.5641766,2.9039006,5.2004485,0.21319197
597,2026-05-11 16:09:24.929640,0.9058455,-0.10848194,1.5641766,2.9039006,5.2004485,0.21319197
598,2026-05-11 16:09:24.932226,0.9058455,-0.10848194,1.5641766,2.9039006,5.2004485,0.21319197
599,2026-05-11 16:09:24.935311,0.9058455,-0.10848194,1.5641766,2.9039006,5.2004485,0.21319197
600,2026-05-11 16:09:24.938040,0.9058455,-0.10848194,1.5641766,2.9039006,5.2004485,0.21319197
601,2026-05-11 16:09:24.940605,0.9058455,-0.10848194,1.5641766,2.9039006,5.2004485,0.21319197
602,2026-05-11 16:09:24.943212,0.9058455,-0.10848194,1.5641766,2.9039006,5.2004485,0.21319197
603,2026-05-11 16:09:24.946008,0.9058455,-0.10848194,1.5641766,2.9039006,5.2004485,0.21319197
604,2026-05-11 16:09:24.948800,0.9058455,-0.10848194,1.5641766,2.9684997,4.97901,-0.0870483
605,2026-05-11 16:09:24.951965,0.9058455,-0.10848194,1.5641766,2.9684997,4.97901,-0.0870483
606,2026-05-11 16:09:24.954967,0.61534077,-0.1164702,1.4383767,3.0100386,4.782464,-0.5849035
607,2026-05-11 16:09:24.957683,0.35855752,-0.1367153,1.2708058,3.0100386,4.782464,-0.5849035
608,2026-05-11 16:09:24.960499,0.35855752,-0.1367153,1.2708058,3.0100386,4.782464,-0.5849035
609,2026-05-11 16:09:24.963161,0.35855752,-0.1367153,1.2708058,2.740036,4.9814534,-0.5030475
610,2026-05-11 16:09:24.965707,0.35855752,-0.1367153,1.2708058,2.740036,4.9814534,-0.5030475
611,2026-05-11 16:09:24.968837,0.35855752,-0.1367153,1.2708058,2.740036,4.9814534,-0.5030475
612,2026-05-11 16:09:24.971474,0.35855752,-0.1367153,1.2708058,2.740036,4.9814534,-0.5030475
613,2026-05-11 16:09:24.974069,0.35855752,-0.1367153,1.2708058,2.740036,4.9814534,-0.5030475
614,2026-05-11 16:09:24.976798,0.35855752,-0.1367153,1.2708058,2.740036,4.9814534,-0.5030475
615,2026-05-11 16:09:24.979430,0.35855752,-0.1367153,1.2708058,2.740036,4.9814534,-0.5030475
616,2026-05-11 16:09:24.982168,0.35855752,-0.1367153,1.2708058,2.740036,4.9814534,-0.5030475
617,2026-05-11 16:09:24.985091,0.35855752,-0.1367153,1.2708058,2.740036,4.9814534,-0.5030475
618,2026-05-11 16:09:24.987843,0.35855752,-0.1367153,1.2708058,2.740036,4.9814534,-0.5030475
619,2026-05-11 16:09:24.990425,0.35855752,-0.1367153,1.2708058,2.740036,4.9814534,-0.5030475
620,2026-05-11 16:09:24.993010,0.35855752,-0.1367153,1.2708058,2.740036,4.9814534,-0.5030475
621,2026-05-11 16:09:24.995787,0.35855752,-0.1367153,1.2708058,2.4465153,5.2178583,-0.3034473
622,2026-05-11 16:09:24.998467,0.35855752,-0.1367153,1.2708058,2.4465153,5.2178583,-0.3034473
623,2026-05-11 16:09:25.001622,0.35855752,-0.1367153,1.2708058,2.4465153,5.2178583,-0.3034473
624,2026-05-11 16:09:25.004601,0.35855752,-0.1367153,1.2708058,2.4465153,5.2178583,-0.3034473
625,2026-05-11 16:09:25.007292,0.35855752,-0.1367153,1.2708058,2.4465153,5.2178583,-0.3034473
626,2026-05-11 16:09:25.009893,0.35855752,-0.1367153,1.2708058,2.4465153,5.2178583,-0.3034473
627,2026-05-11 16:09:25.012440,0.35855752,-0.1367153,1.2708058,2.4465153,5.2178583,-0.3034473
628,2026-05-11 16:09:25.014966,0.35855752,-0.1367153,1.2708058,2.4465153,5.2178583,-0.3034473
629,2026-05-11 16:09:25.017838,0.35855752,-0.1367153,1.2708058,2.4465153,5.2178583,-0.3034473
630,2026-05-11 16:09:25.045534,0.31428665,-0.14659391,1.223364,2.4465153,5.2178583,-0.3034473
631,2026-05-11 16:09:25.049242,0.31428665,-0.14659391,1.223364,2.4465153,5.2178583,-0.3034473
632,2026-05-11 16:09:25.058488,0.31428665,-0.14659391,1.223364,2.4465153,5.2178583,-0.3034473
633,2026-05-11 16:09:25.061299,0.31428665,-0.14659391,1.223364,2.4465153,5.2178583,-0.3034473
634,2026-05-11 16:09:25.064052,0.31428665,-0.14659391,1.223364,2.4465153,5.2178583,-0.3034473
635,2026-05-11 16:09:25.067052,0.31428665,-0.14659391,1.223364,2.4465153,5.2178583,-0.3034473
636,2026-05-11 16:09:25.069749,0.31428665,-0.14659391,1.223364,2.4465153,5.2178583,-0.3034473
637,2026-05-11 16:09:25.072328,0.31428665,-0.14659391,1.223364,2.4465153,5.2178583,-0.3034473
638,2026-05-11 16:09:25.074914,0.31428665,-0.14659391,1.223364,2.4465153,5.2178583,-0.3034473
639,2026-05-11 16:09:25.077607,0.31428665,-0.14659391,1.223364,2.4465153,5.2178583,-0.3034473
640,2026-05-11 16:09:25.080518,0.31428665,-0.14659391,1.223364,2.4465153,5.2178583,-0.3034473
641,2026-05-11 16:09:25.083462,0.31428665,-0.14659391,1.223364,2.4465153,5.2178583,-0.3034473
642,2026-05-11 16:09:25.086176,0.31428665,-0.14659391,1.223364,2.4465153,5.2178583,-0.3034473
643,2026-05-11 16:09:25.088762,0.31428665,-0.14659391,1.223364,2.4465153,5.2178583,-0.3034473
644,2026-05-11 16:09:25.091590,0.25861263,-0.21385394,1.2531829,2.1439843,5.689599,0.008399397
645,2026-05-11 16:09:25.094389,0.25861263,-0.21385394,1.2531829,2.1439843,5.689599,0.008399397
646,2026-05-11 16:09:25.096971,0.25861263,-0.21385394,1.2531829,2.1439843,5.689599,0.008399397
647,2026-05-11 16:09:25.100049,0.25861263,-0.21385394,1.2531829,2.1439843,5.689599,0.008399397
648,2026-05-11 16:09:25.102887,0.25861263,-0.21385394,1.2531829,2.1439843,5.689599,0.008399397
649,2026-05-11 16:09:25.105527,0.25861263,-0.21385394,1.2531829,2.1439843,5.689599,0.008399397
650,2026-05-11 16:09:25.108108,0.25861263,-0.21385394,1.2531829,2.1439843,5.689599,0.008399397
651,2026-05-11 16:09:25.111006,0.25861263,-0.21385394,1.2531829,2.1439843,5.689599,0.008399397
652,2026-05-11 16:09:25.113626,0.25861263,-0.21385394,1.2531829,2.1439843,5.689599,0.008399397
653,2026-05-11 16:09:25.116618,0.25861263,-0.21385394,1.2531829,2.1439843,5.689599,0.008399397
654,2026-05-11 16:09:25.119385,0.25861263,-0.21385394,1.2531829,2.1439843,5.689599,0.008399397
655,2026-05-11 16:09:25.121990,0.25861263,-0.21385394,1.2531829,2.1439843,5.689599,0.008399397
656,2026-05-11 16:09:25.124542,0.25861263,-0.21385394,1.2531829,2.1439843,5.689599,0.008399397
657,2026-05-11 16:09:25.127300,0.25861263,-0.21385394,1.2531829,2.1439843,5.689599,0.008399397
658,2026-05-11 16:09:25.129941,0.25861263,-0.21385394,1.2531829,2.1025982,6.049704,0.3747658
659,2026-05-11 16:09:25.132814,0.25861263,-0.21385394,1.2531829,2.1025982,6.049704,0.3747658
660,2026-05-11 16:09:25.135817,0.25861263,-0.21385394,1.2531829,2.1025982,6.049704,0.3747658
661,2026-05-11 16:09:25.138588,0.25861263,-0.21385394,1.2531829,2.1025982,6.049704,0.3747658
662,2026-05-11 16:09:25.141187,0.25861263,-0.21385394,1.2531829,2.1025982,6.049704,0.3747658
663,2026-05-11 16:09:25.143753,0.25861263,-0.21385394,1.2531829,2.1025982,6.049704,0.3747658
664,2026-05-11 16:09:25.146536,0.25861263,-0.21385394,1.2531829,2.1025982,6.049704,0.3747658
665,2026-05-11 16:09:25.149162,0.25861263,-0.21385394,1.2531829,2.1025982,6.049704,0.3747658
666,2026-05-11 16:09:25.152475,0.38441268,-0.257576,1.2954415,2.1025982,6.049704,0.3747658
667,2026-05-11 16:09:25.155192,0.38441268,-0.257576,1.2954415,2.1025982,6.049704,0.3747658
668,2026-05-11 16:09:25.157764,0.38441268,-0.257576,1.2954415,2.1025982,6.049704,0.3747658
669,2026-05-11 16:09:25.160429,0.38441268,-0.257576,1.2954415,2.1025982,6.049704,0.3747658
670,2026-05-11 16:09:25.163215,0.38441268,-0.257576,1.2954415,2.1025982,6.049704,0.3747658
671,2026-05-11 16:09:25.166024,0.38441268,-0.257576,1.2954415,2.1025982,6.049704,0.3747658
672,2026-05-11 16:09:25.169232,0.38441268,-0.257576,1.2954415,2.1025982,6.049704,0.3747658
673,2026-05-11 16:09:25.171853,0.38441268,-0.257576,1.2954415,2.1025982,6.049704,0.3747658
674,2026-05-11 16:09:25.174659,0.38441268,-0.257576,1.2954415,2.1025982,6.049704,0.3747658
675,2026-05-11 16:09:25.177586,0.5585082,-0.21763465,1.3269067,2.3017402,6.0090814,0.5314528
676,2026-05-11 16:09:25.180258,0.64796466,-0.18860857,1.2606224,2.3017402,6.0090814,0.5314528
677,2026-05-11 16:09:25.182876,0.64796466,-0.18860857,1.2606224,2.3017402,6.0090814,0.5314528
678,2026-05-11 16:09:25.186212,0.64796466,-0.18860857,1.2606224,2.3017402,6.0090814,0.5314528
679,2026-05-11 16:09:25.188969,0.64796466,-0.18860857,1.2606224,2.9254336,5.5121427,0.42149702
680,2026-05-11 16:09:25.191759,0.64796466,-0.18860857,1.2606224,2.9254336,5.5121427,0.42149702
681,2026-05-11 16:09:25.194641,0.64796466,-0.18860857,1.2606224,2.9254336,5.5121427,0.42149702
682,2026-05-11 16:09:25.197327,0.64796466,-0.18860857,1.2606224,2.9254336,5.5121427,0.42149702
683,2026-05-11 16:09:25.200429,0.64796466,-0.18860857,1.2606224,2.9254336,5.5121427,0.42149702
684,2026-05-11 16:09:25.203414,0.64796466,-0.18860857,1.2606224,2.9254336,5.5121427,0.42149702
685,2026-05-11 16:09:25.206249,0.63467115,-0.18275456,1.1009179,3.36938,5.020549,0.2959642
686,2026-05-11 16:09:25.208975,0.63467115,-0.18275456,1.1009179,3.36938,5.020549,0.2959642
687,2026-05-11 16:09:25.211735,0.63467115,-0.18275456,1.1009179,3.36938,5.020549,0.2959642
688,2026-05-11 16:09:25.214350,0.63467115,-0.18275456,1.1009179,3.36938,5.020549,0.2959642
689,2026-05-11 16:09:25.217352,0.63467115,-0.18275456,1.1009179,3.36938,5.020549,0.2959642
690,2026-05-11 16:09:25.220344,0.63467115,-0.18275456,1.1009179,3.36938,5.020549,0.2959642
691,2026-05-11 16:09:25.222942,0.63467115,-0.18275456,1.1009179,3.36938,5.020549,0.2959642
692,2026-05-11 16:09:25.225670,0.63467115,-0.18275456,1.1009179,3.36938,5.020549,0.2959642
693,2026-05-11 16:09:25.228488,0.63467115,-0.18275456,1.1009179,3.5587482,4.7494774,0.19394971
694,2026-05-11 16:09:25.231115,0.63467115,-0.18275456,1.1009179,3.5587482,4.7494774,0.19394971
695,2026-05-11 16:09:25.234039,0.6325369,-0.13153206,0.9437745,3.5587482,4.7494774,0.19394971
696,2026-05-11 16:09:25.236817,0.6325369,-0.13153206,0.9437745,3.5587482,4.7494774,0.19394971
697,2026-05-11 16:09:25.239471,0.6325369,-0.13153206,0.9437745,3.5587482,4.7494774,0.19394971
698,2026-05-11 16:09:25.242176,0.6325369,-0.13153206,0.9437745,3.5587482,4.7494774,0.19394971
699,2026-05-11 16:09:25.244764,0.6325369,-0.13153206,0.9437745,3.5587482,4.7494774,0.19394971
700,2026-05-11 16:09:25.247560,0.6325369,-0.13153206,0.9437745,3.5587482,4.7494774,0.19394971
701,2026-05-11 16:09:25.250771,0.6325369,-0.13153206,0.9437745,3.5587482,4.7494774,0.19394971
702,2026-05-11 16:09:25.253600,0.6325369,-0.13153206,0.9437745,3.5587482,4.7494774,0.19394971
703,2026-05-11 16:09:25.256359,0.6325369,-0.13153206,0.9437745,3.5587482,4.7494774,0.19394971
704,2026-05-11 16:09:25.258992,0.6325369,-0.13153206,0.9437745,3.5587482,4.7494774,0.19394971
705,2026-05-11 16:09:25.261702,0.6325369,-0.13153206,0.9437745,3.5587482,4.7494774,0.19394971
706,2026-05-11 16:09:25.264272,0.6325369,-0.13153206,0.9437745,3.5587482,4.7494774,0.19394971
707,2026-05-11 16:09:25.267098,0.6325369,-0.13153206,0.9437745,3.5587482,4.7494774,0.19394971
708,2026-05-11 16:09:25.269852,0.6325369,-0.13153206,0.9437745,3.5587482,4.7494774,0.19394971
709,2026-05-11 16:09:25.272418,0.6325369,-0.13153206,0.9437745,3.5587482,4.7494774,0.19394971
710,2026-05-11 16:09:25.275256,0.6325369,-0.13153206,0.9437745,3.5587482,4.7494774,0.19394971
711,2026-05-11 16:09:25.277875,0.6325369,-0.13153206,0.9437745,3.5587482,4.7494774,0.19394971
712,2026-05-11 16:09:25.280473,0.6325369,-0.13153206,0.9437745,3.5587482,4.7494774,0.19394971
713,2026-05-11 16:09:25.283197,0.6325369,-0.13153206,0.9437745,3.7223074,4.603175,-0.00076358154
714,2026-05-11 16:09:25.286156,0.6325369,-0.13153206,0.9437745,3.7223074,4.603175,-0.00076358154
715,2026-05-11 16:09:25.288737,0.6325369,-0.13153206,0.9437745,3.7223074,4.603175,-0.00076358154
716,2026-05-11 16:09:25.291280,0.6325369,-0.13153206,0.9437745,3.7223074,4.603175,-0.00076358154
717,2026-05-11 16:09:25.293833,0.6325369,-0.13153206,0.9437745,3.7223074,4.603175,-0.00076358154
718,2026-05-11 16:09:25.296631,0.6325369,-0.13153206,0.9437745,3.7223074,4.603175,-0.00076358154
719,2026-05-11 16:09:25.299348,0.6782103,-0.11567748,0.82035273,3.7223074,4.603175,-0.00076358154
720,2026-05-11 16:09:25.302630,0.6782103,-0.11567748,0.82035273,3.7223074,4.603175,-0.00076358154
721,2026-05-11 16:09:25.305301,0.6782103,-0.11567748,0.82035273,3.7223074,4.603175,-0.00076358154
722,2026-05-11 16:09:25.307870,0.6782103,-0.11567748,0.82035273,3.7223074,4.603175,-0.00076358154
723,2026-05-11 16:09:25.310438,0.6782103,-0.11567748,0.82035273,3.7223074,4.603175,-0.00076358154
724,2026-05-11 16:09:25.313148,0.6782103,-0.11567748,0.82035273,3.7223074,4.603175,-0.00076358154
725,2026-05-11 16:09:25.315836,0.6782103,-0.11567748,0.82035273,3.7223074,4.603175,-0.00076358154
726,2026-05-11 16:09:25.319004,0.6782103,-0.11567748,0.82035273,3.7223074,4.603175,-0.00076358154
727,2026-05-11 16:09:25.321666,0.6782103,-0.11567748,0.82035273,3.7223074,4.603175,-0.00076358154
728,2026-05-11 16:09:25.324451,0.6782103,-0.11567748,0.82035273,3.7223074,4.603175,-0.00076358154
729,2026-05-11 16:09:25.327050,0.6782103,-0.11567748,0.82035273,3.7223074,4.603175,-0.00076358154
730,2026-05-11 16:09:25.329875,0.6782103,-0.11567748,0.82035273,3.7223074,4.603175,-0.00076358154
731,2026-05-11 16:09:25.332651,0.6782103,-0.11567748,0.82035273,3.7223074,4.603175,-0.00076358154
732,2026-05-11 16:09:25.335690,0.6782103,-0.11567748,0.82035273,3.7223074,4.603175,-0.00076358154
733,2026-05-11 16:09:25.338504,0.6782103,-0.11567748,0.82035273,3.7223074,4.603175,-0.00076358154
734,2026-05-11 16:09:25.341206,0.6782103,-0.11567748,0.82035273,3.7223074,4.603175,-0.00076358154
735,2026-05-11 16:09:25.343779,0.6782103,-0.11567748,0.82035273,3.7223074,4.603175,-0.00076358154
736,2026-05-11 16:09:25.346489,0.6782103,-0.11567748,0.82035273,3.7223074,4.603175,-0.00076358154
737,2026-05-11 16:09:25.349227,0.6782103,-0.11567748,0.82035273,3.7223074,4.603175,-0.00076358154
738,2026-05-11 16:09:25.352222,0.6782103,-0.11567748,0.82035273,3.7223074,4.603175,-0.00076358154
739,2026-05-11 16:09:25.354880,0.6782103,-0.11567748,0.82035273,3.7223074,4.603175,-0.00076358154
740,2026-05-11 16:09:25.357433,0.6782103,-0.11567748,0.82035273,3.7223074,4.603175,-0.00076358154
741,2026-05-11 16:09:25.360022,0.6782103,-0.11567748,0.82035273,3.7223074,4.603175,-0.00076358154
742,2026-05-11 16:09:25.362753,0.6782103,-0.11567748,0.82035273,3.7223074,4.603175,-0.00076358154
743,2026-05-11 16:09:25.365361,0.6782103,-0.11567748,0.82035273,3.7223074,4.603175,-0.00076358154
744,2026-05-11 16:09:25.368392,0.6782103,-0.11567748,0.82035273,3.7223074,4.603175,-0.00076358154
745,2026-05-11 16:09:25.371251,0.6782103,-0.11567748,0.82035273,3.7223074,4.603175,-0.00076358154
746,2026-05-11 16:09:25.373889,0.6782103,-0.11567748,0.82035273,3.7223074,4.603175,-0.00076358154
747,2026-05-11 16:09:25.376452,0.6782103,-0.11567748,0.82035273,3.7223074,4.603175,-0.00076358154
748,2026-05-11 16:09:25.379171,0.6782103,-0.11567748,0.82035273,3.7223074,4.603175,-0.00076358154
749,2026-05-11 16:09:25.381755,0.6782103,-0.11567748,0.82035273,3.7223074,4.603175,-0.00076358154
750,2026-05-11 16:09:25.384768,0.6782103,-0.11567748,0.82035273,3.7223074,4.603175,-0.00076358154
751,2026-05-11 16:09:25.387469,0.6782103,-0.11567748,0.82035273,3.7223074,4.603175,-0.00076358154
752,2026-05-11 16:09:25.390167,0.6782103,-0.11567748,0.82035273,3.7223074,4.603175,-0.00076358154
753,2026-05-11 16:09:25.392792,0.6782103,-0.11567748,0.82035273,3.7223074,4.603175,-0.00076358154
754,2026-05-11 16:09:25.395524,0.6522332,-0.16281438,0.6774176,3.7223074,4.603175,-0.00076358154
755,2026-05-11 16:09:25.398276,0.6522332,-0.16281438,0.6774176,3.7223074,4.603175,-0.00076358154
756,2026-05-11 16:09:25.401275,0.6522332,-0.16281438,0.6774176,3.7223074,4.603175,-0.00076358154
757,2026-05-11 16:09:25.404309,0.6522332,-0.16281438,0.6774176,3.7223074,4.603175,-0.00076358154
758,2026-05-11 16:09:25.406969,0.6522332,-0.16281438,0.6774176,3.7223074,4.603175,-0.00076358154
759,2026-05-11 16:09:25.409560,0.6522332,-0.16281438,0.6774176,3.7223074,4.603175,-0.00076358154
760,2026-05-11 16:09:25.412318,0.6522332,-0.16281438,0.6774176,3.8414261,4.615698,-0.1742493
761,2026-05-11 16:09:25.414926,0.6522332,-0.16281438,0.6774176,3.8414261,4.615698,-0.1742493
762,2026-05-11 16:09:25.417852,0.6522332,-0.16281438,0.6774176,3.8414261,4.615698,-0.1742493
763,2026-05-11 16:09:25.420540,0.6522332,-0.16281438,0.6774176,3.8414261,4.615698,-0.1742493
764,2026-05-11 16:09:25.423280,0.6522332,-0.16281438,0.6774176,3.8414261,4.615698,-0.1742493
765,2026-05-11 16:09:25.426007,0.6522332,-0.16281438,0.6774176,3.8414261,4.615698,-0.1742493
766,2026-05-11 16:09:25.428736,0.6522332,-0.16281438,0.6774176,3.8414261,4.615698,-0.1742493
767,2026-05-11 16:09:25.431402,0.6522332,-0.16281438,0.6774176,3.8414261,4.615698,-0.1742493
768,2026-05-11 16:09:25.434536,0.6522332,-0.16281438,0.6774176,3.8414261,4.615698,-0.1742493
769,2026-05-11 16:09:25.437255,0.6522332,-0.16281438,0.6774176,3.8414261,4.615698,-0.1742493
770,2026-05-11 16:09:25.439892,0.60235226,-0.21519548,0.5227744,3.8414261,4.615698,-0.1742493
771,2026-05-11 16:09:25.442577,0.60235226,-0.21519548,0.5227744,3.8414261,4.615698,-0.1742493
772,2026-05-11 16:09:25.445152,0.60235226,-0.21519548,0.5227744,3.8414261,4.615698,-0.1742493
773,2026-05-11 16:09:25.447930,0.60235226,-0.21519548,0.5227744,3.8414261,4.615698,-0.1742493
774,2026-05-11 16:09:25.451197,0.60235226,-0.21519548,0.5227744,3.8414261,4.615698,-0.1742493
775,2026-05-11 16:09:25.454004,0.60235226,-0.21519548,0.5227744,4.003,4.5824056,-0.30925053
776,2026-05-11 16:09:25.456654,0.60235226,-0.21519548,0.5227744,4.003,4.5824056,-0.30925053
777,2026-05-11 16:09:25.459221,0.60235226,-0.21519548,0.5227744,4.003,4.5824056,-0.30925053
778,2026-05-11 16:09:25.461857,0.60235226,-0.21519548,0.5227744,4.003,4.5824056,-0.30925053
779,2026-05-11 16:09:25.464495,0.60235226,-0.21519548,0.5227744,4.003,4.5824056,-0.30925053
780,2026-05-11 16:09:25.467548,0.60235226,-0.21519548,0.5227744,4.003,4.5824056,-0.30925053
781,2026-05-11 16:09:25.470304,0.60235226,-0.21519548,0.5227744,4.003,4.5824056,-0.30925053
782,2026-05-11 16:09:25.472940,0.60235226,-0.21519548,0.5227744,4.003,4.5824056,-0.30925053
783,2026-05-11 16:09:25.475816,0.60235226,-0.21519548,0.5227744,4.003,4.5824056,-0.30925053
784,2026-05-11 16:09:25.478623,0.60235226,-0.21519548,0.5227744,4.003,4.5824056,-0.30925053
785,2026-05-11 16:09:25.481197,0.60235226,-0.21519548,0.5227744,4.003,4.5824056,-0.30925053
786,2026-05-11 16:09:25.484053,0.60235226,-0.21519548,0.5227744,4.003,4.5824056,-0.30925053
787,2026-05-11 16:09:25.487509,0.60235226,-0.21519548,0.5227744,4.260785,4.393343,-0.3129157
788,2026-05-11 16:09:25.490307,0.60235226,-0.21519548,0.5227744,4.260785,4.393343,-0.3129157
789,2026-05-11 16:09:25.492905,0.60235226,-0.21519548,0.5227744,4.260785,4.393343,-0.3129157
790,2026-05-11 16:09:25.495702,0.60235226,-0.21519548,0.5227744,4.260785,4.393343,-0.3129157
791,2026-05-11 16:09:25.498508,0.60235226,-0.21519548,0.5227744,4.260785,4.393343,-0.3129157
792,2026-05-11 16:09:25.501737,0.52618927,-0.32507995,0.3488618,4.260785,4.393343,-0.3129157
793,2026-05-11 16:09:25.504773,0.52618927,-0.32507995,0.3488618,4.260785,4.393343,-0.3129157
794,2026-05-11 16:09:25.507594,0.52618927,-0.32507995,0.3488618,4.260785,4.393343,-0.3129157
795,2026-05-11 16:09:25.510348,0.52618927,-0.32507995,0.3488618,4.260785,4.393343,-0.3129157
796,2026-05-11 16:09:25.512998,0.52618927,-0.32507995,0.3488618,4.260785,4.393343,-0.3129157
797,2026-05-11 16:09:25.515556,0.52618927,-0.32507995,0.3488618,4.260785,4.393343,-0.3129157
798,2026-05-11 16:09:25.518873,0.52618927,-0.32507995,0.3488618,4.260785,4.393343,-0.3129157
799,2026-05-11 16:09:25.521601,0.52618927,-0.32507995,0.3488618,4.260785,4.393343,-0.3129157
800,2026-05-11 16:09:25.524246,0.52618927,-0.32507995,0.3488618,4.260785,4.393343,-0.3129157
801,2026-05-11 16:09:25.526838,0.52618927,-0.32507995,0.3488618,4.260785,4.393343,-0.3129157
802,2026-05-11 16:09:25.529602,0.52618927,-0.32507995,0.3488618,4.260785,4.393343,-0.3129157
803,2026-05-11 16:09:25.532193,0.52618927,-0.32507995,0.3488618,4.260785,4.393343,-0.3129157
804,2026-05-11 16:09:25.535457,0.52618927,-0.32507995,0.3488618,4.260785,4.393343,-0.3129157
805,2026-05-11 16:09:25.538207,0.52618927,-0.32507995,0.3488618,4.260785,4.393343,-0.3129157
806,2026-05-11 16:09:25.540811,0.52618927,-0.32507995,0.3488618,4.260785,4.393343,-0.3129157
807,2026-05-11 16:09:25.543404,0.52618927,-0.32507995,0.3488618,4.260785,4.393343,-0.3129157
808,2026-05-11 16:09:25.546113,0.52618927,-0.32507995,0.3488618,4.260785,4.393343,-0.3129157
809,2026-05-11 16:09:25.548642,0.52618927,-0.32507995,0.3488618,4.260785,4.393343,-0.3129157
810,2026-05-11 16:09:25.551740,0.52618927,-0.32507995,0.3488618,4.260785,4.393343,-0.3129157
811,2026-05-11 16:09:25.554437,0.52618927,-0.32507995,0.3488618,4.260785,4.393343,-0.3129157
812,2026-05-11 16:09:25.557025,0.52618927,-0.32507995,0.3488618,4.260785,4.393343,-0.3129157
813,2026-05-11 16:09:25.559615,0.52618927,-0.32507995,0.3488618,4.260785,4.393343,-0.3129157
814,2026-05-11 16:09:25.562173,0.52618927,-0.32507995,0.3488618,4.260785,4.393343,-0.3129157
815,2026-05-11 16:09:25.564827,0.52618927,-0.32507995,0.3488618,4.260785,4.393343,-0.3129157
816,2026-05-11 16:09:25.567930,0.52618927,-0.32507995,0.3488618,4.260785,4.393343,-0.3129157
817,2026-05-11 16:09:25.570661,0.52618927,-0.32507995,0.3488618,4.260785,4.393343,-0.3129157
818,2026-05-11 16:09:25.573232,0.52618927,-0.32507995,0.3488618,4.260785,4.393343,-0.3129157
819,2026-05-11 16:09:25.575977,0.52618927,-0.32507995,0.3488618,4.260785,4.393343,-0.3129157
820,2026-05-11 16:09:25.578854,0.52618927,-0.32507995,0.3488618,4.260785,4.393343,-0.3129157
821,2026-05-11 16:09:25.581497,0.52618927,-0.32507995,0.3488618,4.260785,4.393343,-0.3129157
822,2026-05-11 16:09:25.584674,0.52618927,-0.32507995,0.3488618,4.260785,4.393343,-0.3129157
823,2026-05-11 16:09:25.587543,0.52618927,-0.32507995,0.3488618,4.260785,4.393343,-0.3129157
824,2026-05-11 16:09:25.590260,0.52618927,-0.32507995,0.3488618,4.260785,4.393343,-0.3129157
825,2026-05-11 16:09:25.593003,0.52618927,-0.32507995,0.3488618,4.260785,4.393343,-0.3129157
826,2026-05-11 16:09:25.595630,0.474235,-0.3822784,0.23848954,4.260785,4.393343,-0.3129157
827,2026-05-11 16:09:25.598447,0.474235,-0.3822784,0.23848954,4.260785,4.393343,-0.3129157
828,2026-05-11 16:09:25.601296,0.5163106,-0.42593947,-0.007378479,4.6955686,3.9498546,-0.27672195
829,2026-05-11 16:09:25.604720,0.5163106,-0.42593947,-0.007378479,4.6955686,3.9498546,-0.27672195
830,2026-05-11 16:09:25.607696,0.5163106,-0.42593947,-0.007378479,4.6955686,3.9498546,-0.27672195
831,2026-05-11 16:09:25.610441,0.5163106,-0.42593947,-0.007378479,4.6955686,3.9498546,-0.27672195
832,2026-05-11 16:09:25.613016,0.5163106,-0.42593947,-0.007378479,4.6955686,3.9498546,-0.27672195
833,2026-05-11 16:09:25.615694,0.5163106,-0.42593947,-0.007378479,4.6955686,3.9498546,-0.27672195
834,2026-05-11 16:09:25.618466,0.5163106,-0.42593947,-0.007378479,4.6955686,3.9498546,-0.27672195
835,2026-05-11 16:09:25.621801,0.5163106,-0.42593947,-0.007378479,4.6955686,3.9498546,-0.27672195
836,2026-05-11 16:09:25.624489,0.5163106,-0.42593947,-0.007378479,4.6955686,3.9498546,-0.27672195
837,2026-05-11 16:09:25.627228,0.5163106,-0.42593947,-0.007378479,4.6955686,3.9498546,-0.27672195
838,2026-05-11 16:09:25.629805,0.5163106,-0.42593947,-0.007378479,4.6955686,3.9498546,-0.27672195
839,2026-05-11 16:09:25.632648,0.5163106,-0.42593947,-0.007378479,5.118898,3.4077117,-0.27183503
840,2026-05-11 16:09:25.636161,0.5163106,-0.42593947,-0.007378479,5.118898,3.4077117,-0.27183503
841,2026-05-11 16:09:25.638962,0.5163106,-0.42593947,-0.007378479,5.118898,3.4077117,-0.27183503
842,2026-05-11 16:09:25.641692,0.5163106,-0.42593947,-0.007378479,5.118898,3.4077117,-0.27183503
843,2026-05-11 16:09:25.644388,0.5163106,-0.42593947,-0.007378479,5.118898,3.4077117,-0.27183503
844,2026-05-11 16:09:25.647023,0.5163106,-0.42593947,-0.007378479,5.118898,3.4077117,-0.27183503
845,2026-05-11 16:09:25.650037,0.5163106,-0.42593947,-0.007378479,5.532454,2.7774515,-0.37797287
846,2026-05-11 16:09:25.652986,0.5163106,-0.42593947,-0.007378479,5.532454,2.7774515,-0.37797287
847,2026-05-11 16:09:25.655678,0.5568008,-0.40093803,-0.22623271,5.532454,2.7774515,-0.37797287
848,2026-05-11 16:09:25.658320,0.5568008,-0.40093803,-0.22623271,5.532454,2.7774515,-0.37797287
849,2026-05-11 16:09:25.660905,0.5568008,-0.40093803,-0.22623271,5.532454,2.7774515,-0.37797287
850,2026-05-11 16:09:25.663575,0.5568008,-0.40093803,-0.22623271,5.532454,2.7774515,-0.37797287
851,2026-05-11 16:09:25.666163,0.5568008,-0.40093803,-0.22623271,5.532454,2.7774515,-0.37797287
852,2026-05-11 16:09:25.669368,0.5568008,-0.40093803,-0.22623271,5.532454,2.7774515,-0.37797287
853,2026-05-11 16:09:25.672053,0.5568008,-0.40093803,-0.22623271,5.532454,2.7774515,-0.37797287
854,2026-05-11 16:09:25.674716,0.5568008,-0.40093803,-0.22623271,5.532454,2.7774515,-0.37797287
855,2026-05-11 16:09:25.677330,0.5568008,-0.40093803,-0.22623271,5.532454,2.7774515,-0.37797287
856,2026-05-11 16:09:25.680097,0.5332019,-0.32050648,-0.802059,5.532454,2.7774515,-0.37797287
857,2026-05-11 16:09:25.683269,0.5332019,-0.32050648,-0.802059,5.532454,2.7774515,-0.37797287
858,2026-05-11 16:09:25.686108,0.5332019,-0.32050648,-0.802059,5.837428,2.0451767,-0.7228063
859,2026-05-11 16:09:25.688692,0.5332019,-0.32050648,-0.802059,5.837428,2.0451767,-0.7228063
860,2026-05-11 16:09:25.691246,0.5332019,-0.32050648,-0.802059,5.837428,2.0451767,-0.7228063
861,2026-05-11 16:09:25.693816,0.5332019,-0.32050648,-0.802059,5.837428,2.0451767,-0.7228063
862,2026-05-11 16:09:25.696574,0.5332019,-0.32050648,-0.802059,5.837428,2.0451767,-0.7228063
863,2026-05-11 16:09:25.699281,0.5332019,-0.32050648,-0.802059,5.837428,2.0451767,-0.7228063
864,2026-05-11 16:09:25.702569,0.5332019,-0.32050648,-0.802059,5.837428,2.0451767,-0.7228063
865,2026-05-11 16:09:25.705371,0.5332019,-0.32050648,-0.802059,5.837428,2.0451767,-0.7228063
866,2026-05-11 16:09:25.707963,0.5332019,-0.32050648,-0.802059,5.837428,2.0451767,-0.7228063
867,2026-05-11 16:09:25.710588,0.5332019,-0.32050648,-0.802059,5.837428,2.0451767,-0.7228063
868,2026-05-11 16:09:25.713221,0.5332019,-0.32050648,-0.802059,5.837428,2.0451767,-0.7228063
869,2026-05-11 16:09:25.715982,0.26458862,-0.263491,-1.580458,5.1526484,2.0350976,-0.9963212
870,2026-05-11 16:09:25.719218,0.26458862,-0.263491,-1.580458,5.1526484,2.0350976,-0.9963212
871,2026-05-11 16:09:25.721871,0.26458862,-0.263491,-1.580458,5.1526484,2.0350976,-0.9963212
872,2026-05-11 16:09:25.724710,0.26458862,-0.263491,-1.580458,5.1526484,2.0350976,-0.9963212
873,2026-05-11 16:09:25.727331,0.26458862,-0.263491,-1.580458,5.1526484,2.0350976,-0.9963212
874,2026-05-11 16:09:25.730252,0.26458862,-0.263491,-1.580458,5.1526484,2.0350976,-0.9963212
875,2026-05-11 16:09:25.732999,0.26458862,-0.263491,-1.580458,5.1526484,2.0350976,-0.9963212
876,2026-05-11 16:09:25.736433,0.26458862,-0.263491,-1.580458,5.1526484,2.0350976,-0.9963212
877,2026-05-11 16:09:25.739095,0.26458862,-0.263491,-1.580458,5.1526484,2.0350976,-0.9963212
878,2026-05-11 16:09:25.741693,0.26458862,-0.263491,-1.580458,5.1526484,2.0350976,-0.9963212
879,2026-05-11 16:09:25.744429,0.09738373,-0.20220692,-1.891086,5.1526484,2.0350976,-0.9963212
880,2026-05-11 16:09:25.747008,0.09738373,-0.20220692,-1.891086,5.1526484,2.0350976,-0.9963212
881,2026-05-11 16:09:25.749609,0.09738373,-0.20220692,-1.891086,5.1526484,2.0350976,-0.9963212
882,2026-05-11 16:09:25.752952,0.09738373,-0.20220692,-1.891086,5.1526484,2.0350976,-0.9963212
883,2026-05-11 16:09:25.755828,0.09738373,-0.20220692,-1.891086,5.1526484,2.0350976,-0.9963212
884,2026-05-11 16:09:25.758595,0.09738373,-0.20220692,-1.891086,5.1526484,2.0350976,-0.9963212
885,2026-05-11 16:09:25.761397,0.09738373,-0.20220692,-1.891086,4.148386,2.2858577,-1.0027353
886,2026-05-11 16:09:25.764164,-0.21080498,-0.18330337,-2.1873229,2.6957483,2.5616634,-0.8003862
887,2026-05-11 16:09:25.767386,-0.21080498,-0.18330337,-2.1873229,2.6957483,2.5616634,-0.8003862
888,2026-05-11 16:09:25.770228,-0.21080498,-0.18330337,-2.1873229,2.6957483,2.5616634,-0.8003862
889,2026-05-11 16:09:25.772856,-0.21080498,-0.18330337,-2.1873229,2.6957483,2.5616634,-0.8003862
890,2026-05-11 16:09:25.775696,-0.21080498,-0.18330337,-2.1873229,2.6957483,2.5616634,-0.8003862
891,2026-05-11 16:09:25.778413,-0.21080498,-0.18330337,-2.1873229,2.6957483,2.5616634,-0.8003862
892,2026-05-11 16:09:25.781107,-0.21080498,-0.18330337,-2.1873229,2.6957483,2.5616634,-0.8003862
893,2026-05-11 16:09:25.784340,-0.21080498,-0.18330337,-2.1873229,2.6957483,2.5616634,-0.8003862
894,2026-05-11 16:09:25.787086,-0.21080498,-0.18330337,-2.1873229,2.6957483,2.5616634,-0.8003862
895,2026-05-11 16:09:25.789695,-0.21080498,-0.18330337,-2.1873229,2.6957483,2.5616634,-0.8003862
896,2026-05-11 16:09:25.792407,-0.21080498,-0.18330337,-2.1873229,2.6957483,2.5616634,-0.8003862
897,2026-05-11 16:09:25.794986,-0.21080498,-0.18330337,-2.1873229,2.6957483,2.5616634,-0.8003862
898,2026-05-11 16:09:25.797741,-0.21080498,-0.18330337,-2.1873229,2.6957483,2.5616634,-0.8003862
899,2026-05-11 16:09:25.800851,-0.21080498,-0.18330337,-2.1873229,2.6957483,2.5616634,-0.8003862
900,2026-05-11 16:09:25.803711,-0.21080498,-0.18330337,-2.1873229,2.6957483,2.5616634,-0.8003862
901,2026-05-11 16:09:25.806398,-0.21080498,-0.18330337,-2.1873229,2.6957483,2.5616634,-0.8003862
902,2026-05-11 16:09:25.809030,-0.21080498,-0.18330337,-2.1873229,2.6957483,2.5616634,-0.8003862
903,2026-05-11 16:09:25.811657,-0.21080498,-0.18330337,-2.1873229,2.6957483,2.5616634,-0.8003862
904,2026-05-11 16:09:25.814313,-0.21080498,-0.18330337,-2.1873229,2.6957483,2.5616634,-0.8003862
905,2026-05-11 16:09:25.817288,-0.21080498,-0.18330337,-2.1873229,2.6957483,2.5616634,-0.8003862
906,2026-05-11 16:09:25.820217,-0.21080498,-0.18330337,-2.1873229,2.6957483,2.5616634,-0.8003862
907,2026-05-11 16:09:25.822821,-0.21080498,-0.18330337,-2.1873229,2.6957483,2.5616634,-0.8003862
908,2026-05-11 16:09:25.825495,-0.21080498,-0.18330337,-2.1873229,2.6957483,2.5616634,-0.8003862
909,2026-05-11 16:09:25.828077,-0.21080498,-0.18330337,-2.1873229,2.6957483,2.5616634,-0.8003862
910,2026-05-11 16:09:25.830766,-0.34312975,-0.18373023,-2.1537843,2.6957483,2.5616634,-0.8003862
911,2026-05-11 16:09:25.834029,-0.34312975,-0.18373023,-2.1537843,2.6957483,2.5616634,-0.8003862
912,2026-05-11 16:09:25.836922,-0.34312975,-0.18373023,-2.1537843,2.6957483,2.5616634,-0.8003862
913,2026-05-11 16:09:25.839532,-0.34312975,-0.18373023,-2.1537843,2.6957483,2.5616634,-0.8003862
914,2026-05-11 16:09:25.842340,-0.34312975,-0.18373023,-2.1537843,1.9341521,2.5334108,-0.61941737
915,2026-05-11 16:09:25.845028,-0.4549046,-0.1507405,-1.9267588,1.0494665,1.743104,-0.20280726
916,2026-05-11 16:09:25.847814,-0.4549046,-0.1507405,-1.9267588,1.0494665,1.743104,-0.20280726
917,2026-05-11 16:09:25.850965,-0.43307403,-0.15275282,-1.8653526,1.0494665,1.743104,-0.20280726
918,2026-05-11 16:09:25.853770,-0.43307403,-0.15275282,-1.8653526,1.0494665,1.743104,-0.20280726
919,2026-05-11 16:09:25.856382,-0.43307403,-0.15275282,-1.8653526,1.0494665,1.743104,-0.20280726
920,2026-05-11 16:09:25.858998,-0.43307403,-0.15275282,-1.8653526,0.8775079,1.098183,-0.04642576
921,2026-05-11 16:09:25.861610,-0.43307403,-0.15275282,-1.8653526,0.8775079,1.098183,-0.04642576
922,2026-05-11 16:09:25.864136,-0.43307403,-0.15275282,-1.8653526,0.8775079,1.098183,-0.04642576
923,2026-05-11 16:09:25.867119,-0.43307403,-0.15275282,-1.8653526,0.8775079,1.098183,-0.04642576
924,2026-05-11 16:09:25.870129,-0.43307403,-0.15275282,-1.8653526,0.8775079,1.098183,-0.04642576
925,2026-05-11 16:09:25.872832,-0.43307403,-0.15275282,-1.8653526,0.8775079,1.098183,-0.04642576
926,2026-05-11 16:09:25.875454,-0.43307403,-0.15275282,-1.8653526,0.8775079,1.098183,-0.04642576
927,2026-05-11 16:09:25.878025,-0.43307403,-0.15275282,-1.8653526,0.8775079,1.098183,-0.04642576
928,2026-05-11 16:09:25.880886,-0.43307403,-0.15275282,-1.8653526,0.8775079,1.098183,-0.04642576
929,2026-05-11 16:09:25.883974,-0.43307403,-0.15275282,-1.8653526,0.8775079,1.098183,-0.04642576
930,2026-05-11 16:09:25.886893,-0.43307403,-0.15275282,-1.8653526,0.8775079,1.098183,-0.04642576
931,2026-05-11 16:09:25.889560,-0.43307403,-0.15275282,-1.8653526,0.8775079,1.098183,-0.04642576
932,2026-05-11 16:09:25.892292,-0.43307403,-0.15275282,-1.8653526,0.8775079,1.098183,-0.04642576
933,2026-05-11 16:09:25.894889,-0.43307403,-0.15275282,-1.8653526,0.8775079,1.098183,-0.04642576
934,2026-05-11 16:09:25.897620,-0.43307403,-0.15275282,-1.8653526,0.8775079,1.098183,-0.04642576
935,2026-05-11 16:09:25.900581,-0.43307403,-0.15275282,-1.8653526,0.8775079,1.098183,-0.04642576
936,2026-05-11 16:09:25.903298,-0.43307403,-0.15275282,-1.8653526,0.8775079,1.098183,-0.04642576
937,2026-05-11 16:09:25.906000,-0.43307403,-0.15275282,-1.8653526,0.8775079,1.098183,-0.04642576
938,2026-05-11 16:09:25.908586,-0.43307403,-0.15275282,-1.8653526,0.8775079,1.098183,-0.04642576
939,2026-05-11 16:09:25.911346,-0.43307403,-0.15275282,-1.8653526,0.8775079,1.098183,-0.04642576
940,2026-05-11 16:09:25.913893,-0.43307403,-0.15275282,-1.8653526,0.8775079,1.098183,-0.04642576
941,2026-05-11 16:09:25.916937,-0.43307403,-0.15275282,-1.8653526,0.8775079,1.098183,-0.04642576
942,2026-05-11 16:09:25.919684,-0.43307403,-0.15275282,-1.8653526,0.8775079,1.098183,-0.04642576
943,2026-05-11 16:09:25.922313,-0.40447482,-0.18068127,-1.7966292,0.6565274,0.07009678,0.15027285
944,2026-05-11 16:09:25.925056,-0.40447482,-0.18068127,-1.7966292,0.6565274,0.07009678,0.15027285
945,2026-05-11 16:09:25.927647,-0.40447482,-0.18068127,-1.7966292,0.6565274,0.07009678,0.15027285
946,2026-05-11 16:09:25.930326,-0.40447482,-0.18068127,-1.7966292,0.6565274,0.07009678,0.15027285
947,2026-05-11 16:09:25.933145,-0.43417168,-0.13110521,-1.8287652,-0.2182316,-0.6772968,0.44394633
948,2026-05-11 16:09:25.936226,-0.43417168,-0.13110521,-1.8287652,-0.2182316,-0.6772968,0.44394633
949,2026-05-11 16:09:25.938922,-0.43417168,-0.13110521,-1.8287652,-0.2182316,-0.6772968,0.44394633
950,2026-05-11 16:09:25.941663,-0.44307464,-0.06994311,-1.7857751,-0.2182316,-0.6772968,0.44394633
951,2026-05-11 16:09:25.944308,-0.44307464,-0.06994311,-1.7857751,-0.2182316,-0.6772968,0.44394633
952,2026-05-11 16:09:25.946849,-0.44307464,-0.06994311,-1.7857751,-0.2182316,-0.6772968,0.44394633
953,2026-05-11 16:09:25.949697,-0.44307464,-0.06994311,-1.7857751,-0.2182316,-0.6772968,0.44394633
954,2026-05-11 16:09:25.952722,-0.44307464,-0.06994311,-1.7857751,-0.2182316,-0.6772968,0.44394633
955,2026-05-11 16:09:25.955486,-0.44307464,-0.06994311,-1.7857751,-0.2182316,-0.6772968,0.44394633
956,2026-05-11 16:09:25.958119,-0.44307464,-0.06994311,-1.7857751,-0.2182316,-0.6772968,0.44394633
957,2026-05-11 16:09:25.960701,-0.44307464,-0.06994311,-1.7857751,-0.2182316,-0.6772968,0.44394633
958,2026-05-11 16:09:25.963406,-0.44307464,-0.06994311,-1.7857751,-0.2182316,-0.6772968,0.44394633
959,2026-05-11 16:09:25.966072,-0.44307464,-0.06994311,-1.7857751,-0.2182316,-0.6772968,0.44394633
960,2026-05-11 16:09:25.969312,-0.44307464,-0.06994311,-1.7857751,-0.2182316,-0.6772968,0.44394633
961,2026-05-11 16:09:25.972078,-0.44307464,-0.06994311,-1.7857751,-0.2182316,-0.6772968,0.44394633
962,2026-05-11 16:09:25.974693,-0.44307464,-0.06994311,-1.7857751,-0.2182316,-0.6772968,0.44394633
963,2026-05-11 16:09:25.977412,-0.44405028,-0.0032318959,-1.5972273,-0.94027436,-1.1931726,0.55756724
964,2026-05-11 16:09:25.979992,-0.44405028,-0.0032318959,-1.5972273,-0.94027436,-1.1931726,0.55756724
965,2026-05-11 16:09:25.983005,-0.44405028,-0.0032318959,-1.5972273,-0.94027436,-1.1931726,0.55756724
966,2026-05-11 16:09:25.985828,-0.43886706,0.012500729,-1.5036852,-1.163851,-1.3817772,0.59040123
967,2026-05-11 16:09:25.988435,-0.43886706,0.012500729,-1.5036852,-1.163851,-1.3817772,0.59040123
968,2026-05-11 16:09:25.991259,-0.43886706,0.012500729,-1.5036852,-1.163851,-1.3817772,0.59040123
969,2026-05-11 16:09:25.993901,-0.43886706,0.012500729,-1.5036852,-1.163851,-1.3817772,0.59040123
970,2026-05-11 16:09:25.996683,-0.43886706,0.012500729,-1.5036852,-1.163851,-1.3817772,0.59040123
971,2026-05-11 16:09:25.999319,-0.43886706,0.012500729,-1.5036852,-1.163851,-1.3817772,0.59040123
972,2026-05-11 16:09:26.002423,-0.43886706,0.012500729,-1.5036852,-1.163851,-1.3817772,0.59040123
973,2026-05-11 16:09:26.005099,-0.43886706,0.012500729,-1.5036852,-1.163851,-1.3817772,0.59040123
974,2026-05-11 16:09:26.007639,-0.43886706,0.012500729,-1.5036852,-1.163851,-1.3817772,0.59040123
975,2026-05-11 16:09:26.010259,-0.38660794,0.047197875,-1.1192117,-1.7189748,-2.0673208,0.66905016
976,2026-05-11 16:09:26.012858,-0.38660794,0.047197875,-1.1192117,-1.7189748,-2.0673208,0.66905016
977,2026-05-11 16:09:26.015358,-0.38660794,0.047197875,-1.1192117,-1.7189748,-2.0673208,0.66905016
978,2026-05-11 16:09:26.018293,-0.38660794,0.047197875,-1.1192117,-1.7189748,-2.0673208,0.66905016
979,2026-05-11 16:09:26.021024,-0.38660794,0.047197875,-1.1192117,-1.7189748,-2.0673208,0.66905016
980,2026-05-11 16:09:26.023644,-0.38660794,0.047197875,-1.1192117,-1.7189748,-2.0673208,0.66905016
981,2026-05-11 16:09:26.026541,-0.38660794,0.047197875,-1.1192117,-1.7189748,-2.0673208,0.66905016
982,2026-05-11 16:09:26.029563,-0.38660794,0.047197875,-1.1192117,-1.7189748,-2.0673208,0.66905016
983,2026-05-11 16:09:26.032290,-0.38660794,0.047197875,-1.1192117,-1.7189748,-2.0673208,0.66905016
984,2026-05-11 16:09:26.035551,-0.38660794,0.047197875,-1.1192117,-1.7189748,-2.0673208,0.66905016
985,2026-05-11 16:09:26.038338,-0.38660794,0.047197875,-1.1192117,-1.7189748,-2.0673208,0.66905016
986,2026-05-11 16:09:26.040950,-0.38660794,0.047197875,-1.1192117,-1.7189748,-2.0673208,0.66905016
987,2026-05-11 16:09:26.043604,-0.38660794,0.047197875,-1.1192117,-1.7189748,-2.0673208,0.66905016
988,2026-05-11 16:09:26.046178,-0.38660794,0.047197875,-1.1192117,-1.7189748,-2.0673208,0.66905016
989,2026-05-11 16:09:26.048756,-0.38660794,0.047197875,-1.1192117,-1.7189748,-2.0673208,0.66905016
990,2026-05-11 16:09:26.052011,-0.38660794,0.047197875,-1.1192117,-1.7189748,-2.0673208,0.66905016
991,2026-05-11 16:09:26.054736,-0.38660794,0.047197875,-1.1192117,-1.7189748,-2.0673208,0.66905016
992,2026-05-11 16:09:26.057352,-0.38660794,0.047197875,-1.1192117,-1.7189748,-2.0673208,0.66905016
993,2026-05-11 16:09:26.060171,-0.38660794,0.047197875,-1.1192117,-1.7189748,-2.0673208,0.66905016
994,2026-05-11 16:09:26.062775,-0.38660794,0.047197875,-1.1192117,-1.7189748,-2.0673208,0.66905016
995,2026-05-11 16:09:26.065452,-0.38660794,0.047197875,-1.1192117,-1.7189748,-2.0673208,0.66905016
996,2026-05-11 16:09:26.068413,-0.38660794,0.047197875,-1.1192117,-1.7189748,-2.0673208,0.66905016
997,2026-05-11 16:09:26.071226,-0.38660794,0.047197875,-1.1192117,-1.7189748,-2.0673208,0.66905016
998,2026-05-11 16:09:26.073968,-0.38660794,0.047197875,-1.1192117,-1.7189748,-2.0673208,0.66905016
999,2026-05-11 16:09:26.076641,-0.38660794,0.047197875,-1.1192117,-1.7189748,-2.0673208,0.66905016
1000,2026-05-11 16:09:26.079296,-0.38660794,0.047197875,-1.1192117,-1.7189748,-2.0673208,0.66905016
1001,2026-05-11 16:09:26.081872,-0.38660794,0.047197875,-1.1192117,-1.7189748,-2.0673208,0.66905016
1002,2026-05-11 16:09:26.085003,-0.38660794,0.047197875,-1.1192117,-1.7189748,-2.0673208,0.66905016
1003,2026-05-11 16:09:26.087708,-0.38660794,0.047197875,-1.1192117,-1.7189748,-2.0673208,0.66905016
1004,2026-05-11 16:09:26.090344,-0.38660794,0.047197875,-1.1192117,-1.7189748,-2.0673208,0.66905016
1005,2026-05-11 16:09:26.093046,-0.38660794,0.047197875,-1.1192117,-1.8232801,-2.2438607,0.6772968
1006,2026-05-11 16:09:26.095614,-0.38660794,0.047197875,-1.1192117,-1.8232801,-2.2438607,0.6772968
1007,2026-05-11 16:09:26.098419,-0.38660794,0.047197875,-1.1192117,-1.8232801,-2.2438607,0.6772968
1008,2026-05-11 16:09:26.101477,-0.38660794,0.047197875,-1.1192117,-1.8232801,-2.2438607,0.6772968
1009,2026-05-11 16:09:26.104338,-0.38660794,0.047197875,-1.1192117,-1.8232801,-2.2438607,0.6772968
1010,2026-05-11 16:09:26.106919,-0.38660794,0.047197875,-1.1192117,-1.8232801,-2.2438607,0.6772968
1011,2026-05-11 16:09:26.109779,-0.3784367,0.04914921,-1.0641475,-1.8232801,-2.2438607,0.6772968
1012,2026-05-11 16:09:26.112556,-0.34312975,0.032745812,-0.7052851,-2.021353,-2.624277,0.677755
1013,2026-05-11 16:09:26.115260,-0.3031884,0.029635875,-0.4616733,-2.021353,-2.624277,0.677755
1014,2026-05-11 16:09:26.118334,-0.3031884,0.029635875,-0.4616733,-2.021353,-2.624277,0.677755
1015,2026-05-11 16:09:26.121150,-0.3031884,0.029635875,-0.4616733,-2.0694587,-2.796083,0.6944011
1016,2026-05-11 16:09:26.123833,-0.3031884,0.029635875,-0.4616733,-2.0694587,-2.796083,0.6944011
1017,2026-05-11 16:09:26.126498,-0.3031884,0.029635875,-0.4616733,-2.0694587,-2.796083,0.6944011
1018,2026-05-11 16:09:26.129113,-0.3031884,0.029635875,-0.4616733,-2.0694587,-2.796083,0.6944011
1019,2026-05-11 16:09:26.131913,-0.3031884,0.029635875,-0.4616733,-2.0694587,-2.796083,0.6944011
1020,2026-05-11 16:09:26.134970,-0.3031884,0.029635875,-0.4616733,-2.0694587,-2.796083,0.6944011
1021,2026-05-11 16:09:26.137784,-0.3031884,0.029635875,-0.4616733,-2.0694587,-2.796083,0.6944011
1022,2026-05-11 16:09:26.140499,-0.3031884,0.029635875,-0.4616733,-2.0694587,-2.796083,0.6944011
1023,2026-05-11 16:09:26.143090,-0.3031884,0.029635875,-0.4616733,-2.0694587,-2.796083,0.6944011
1024,2026-05-11 16:09:26.145645,-0.3031884,0.029635875,-0.4616733,-2.0694587,-2.796083,0.6944011
1025,2026-05-11 16:09:26.148434,-0.3031884,0.029635875,-0.4616733,-2.0694587,-2.796083,0.6944011
1026,2026-05-11 16:09:26.151368,-0.3031884,0.029635875,-0.4616733,-2.0694587,-2.796083,0.6944011
1027,2026-05-11 16:09:26.154058,-0.3031884,0.029635875,-0.4616733,-2.0694587,-2.796083,0.6944011
1028,2026-05-11 16:09:26.156836,-0.3031884,0.029635875,-0.4616733,-2.0694587,-2.796083,0.6944011
1029,2026-05-11 16:09:26.159434,-0.3031884,0.029635875,-0.4616733,-2.0694587,-2.796083,0.6944011
1030,2026-05-11 16:09:26.162203,-0.23763582,0.060125455,-0.31282312,-2.0092885,-2.940858,0.65011334
1031,2026-05-11 16:09:26.164826,-0.2271474,0.0954324,-0.21824445,-2.0092885,-2.940858,0.65011334
1032,2026-05-11 16:09:26.167807,-0.2271474,0.0954324,-0.21824445,-2.0092885,-2.940858,0.65011334
1033,2026-05-11 16:09:26.170498,-0.2271474,0.0954324,-0.21824445,-2.0092885,-2.940858,0.65011334
1034,2026-05-11 16:09:26.173035,-0.2271474,0.0954324,-0.21824445,-2.0092885,-2.940858,0.65011334
1035,2026-05-11 16:09:26.175741,-0.2271474,0.0954324,-0.21824445,-2.0092885,-2.940858,0.65011334
1036,2026-05-11 16:09:26.178519,-0.2271474,0.0954324,-0.21824445,-2.0092885,-2.940858,0.65011334
1037,2026-05-11 16:09:26.181315,-0.30398116,0.131715,-0.13909347,-1.9320141,-3.099683,0.57757306
1038,2026-05-11 16:09:26.184310,-0.30398116,0.131715,-0.13909347,-1.9320141,-3.099683,0.57757306
1039,2026-05-11 16:09:26.187683,-0.30398116,0.131715,-0.13909347,-1.9320141,-3.099683,0.57757306
1040,2026-05-11 16:09:26.214412,-0.30398116,0.131715,-0.13909347,-1.8559613,-3.3819027,0.5233588
1041,2026-05-11 16:09:26.217778,-0.30398116,0.131715,-0.13909347,-1.8559613,-3.3819027,0.5233588
1042,2026-05-11 16:09:26.226506,-0.30398116,0.131715,-0.13909347,-1.8559613,-3.3819027,0.5233588
1043,2026-05-11 16:09:26.229313,-0.30398116,0.131715,-0.13909347,-1.8559613,-3.3819027,0.5233588
1044,2026-05-11 16:09:26.231883,-0.30398116,0.131715,-0.13909347,-1.8559613,-3.3819027,0.5233588
1045,2026-05-11 16:09:26.234980,-0.30398116,0.131715,-0.13909347,-1.8559613,-3.3819027,0.5233588
1046,2026-05-11 16:09:26.237716,-0.30398116,0.131715,-0.13909347,-1.8559613,-3.3819027,0.5233588
1047,2026-05-11 16:09:26.240360,-0.30398116,0.131715,-0.13909347,-1.8559613,-3.3819027,0.5233588
1048,2026-05-11 16:09:26.243123,-0.30398116,0.131715,-0.13909347,-1.8559613,-3.3819027,0.5233588
1049,2026-05-11 16:09:26.245702,-0.30398116,0.131715,-0.13909347,-1.8559613,-3.3819027,0.5233588
1050,2026-05-11 16:09:26.248628,-0.35428897,0.114823766,-0.11012838,-1.9028453,-3.5498908,0.5352707
1051,2026-05-11 16:09:26.251496,-0.35428897,0.114823766,-0.11012838,-1.9028453,-3.5498908,0.5352707
1052,2026-05-11 16:09:26.254861,-0.35428897,0.114823766,-0.11012838,-1.9028453,-3.5498908,0.5352707
1053,2026-05-11 16:09:26.257610,-0.35428897,0.114823766,-0.11012838,-1.9028453,-3.5498908,0.5352707
1054,2026-05-11 16:09:26.260312,-0.35428897,0.114823766,-0.11012838,-1.9028453,-3.5498908,0.5352707
1055,2026-05-11 16:09:26.262889,-0.35428897,0.114823766,-0.11012838,-1.9028453,-3.5498908,0.5352707
1056,2026-05-11 16:09:26.265713,-0.35428897,0.114823766,-0.11012838,-1.9028453,-3.5498908,0.5352707
1057,2026-05-11 16:09:26.268569,-0.35428897,0.114823766,-0.11012838,-1.9028453,-3.5498908,0.5352707
1058,2026-05-11 16:09:26.271985,-0.35428897,0.114823766,-0.11012838,-1.9028453,-3.5498908,0.5352707
1059,2026-05-11 16:09:26.274640,-0.35428897,0.114823766,-0.11012838,-1.9028453,-3.5498908,0.5352707
1060,2026-05-11 16:09:26.277366,-0.35428897,0.114823766,-0.11012838,-1.9028453,-3.5498908,0.5352707
1061,2026-05-11 16:09:26.279983,-0.35428897,0.114823766,-0.11012838,-1.9028453,-3.5498908,0.5352707
1062,2026-05-11 16:09:26.282573,-0.35428897,0.114823766,-0.11012838,-1.9028453,-3.5498908,0.5352707
1063,2026-05-11 16:09:26.285787,-0.39246193,0.09415183,-0.049515083,-1.9028453,-3.5498908,0.5352707
1064,2026-05-11 16:09:26.288433,-0.39246193,0.09415183,-0.049515083,-1.9028453,-3.5498908,0.5352707
1065,2026-05-11 16:09:26.291169,-0.39246193,0.09415183,-0.049515083,-2.1276436,-3.545309,0.62858033
1066,2026-05-11 16:09:26.293732,-0.39246193,0.09415183,-0.049515083,-2.1276436,-3.545309,0.62858033
1067,2026-05-11 16:09:26.296570,-0.39246193,0.09415183,-0.049515083,-2.1276436,-3.545309,0.62858033
1068,2026-05-11 16:09:26.299281,-0.39246193,0.09415183,-0.049515083,-2.1276436,-3.545309,0.62858033
1069,2026-05-11 16:09:26.302550,-0.39246193,0.09415183,-0.049515083,-2.3270912,-3.4475708,0.7301367
1070,2026-05-11 16:09:26.305428,-0.39246193,0.09415183,-0.049515083,-2.3270912,-3.4475708,0.7301367
1071,2026-05-11 16:09:26.308153,-0.42624438,0.079089984,-0.0043905,-2.3270912,-3.4475708,0.7301367
1072,2026-05-11 16:09:26.310839,-0.42624438,0.079089984,-0.0043905,-2.3270912,-3.4475708,0.7301367
1073,2026-05-11 16:09:26.313533,-0.42624438,0.079089984,-0.0043905,-2.3270912,-3.4475708,0.7301367
1074,2026-05-11 16:09:26.316191,-0.42624438,0.079089984,-0.0043905,-2.3270912,-3.4475708,0.7301367
1075,2026-05-11 16:09:26.319674,-0.42624438,0.079089984,-0.0043905,-2.3270912,-3.4475708,0.7301367
1076,2026-05-11 16:09:26.322320,-0.42624438,0.079089984,-0.0043905,-2.3270912,-3.4475708,0.7301367
1077,2026-05-11 16:09:26.324899,-0.42624438,0.079089984,-0.0043905,-2.3270912,-3.4475708,0.7301367
1078,2026-05-11 16:09:26.327860,-0.42624438,0.079089984,-0.0043905,-2.3270912,-3.4475708,0.7301367
1079,2026-05-11 16:09:26.330537,-0.42624438,0.079089984,-0.0043905,-2.3270912,-3.4475708,0.7301367
1080,2026-05-11 16:09:26.333993,-0.45624614,0.017379062,0.12043386,-3.0034716,-2.9501736,1.2980887
1081,2026-05-11 16:09:26.337084,-0.38880318,-0.013415418,0.29056573,-3.0034716,-2.9501736,1.2980887
1082,2026-05-11 16:09:26.339729,-0.38880318,-0.013415418,0.29056573,-3.0034716,-2.9501736,1.2980887
1083,2026-05-11 16:09:26.342308,-0.38880318,-0.013415418,0.29056573,-3.0034716,-2.9501736,1.2980887
1084,2026-05-11 16:09:26.345070,-0.38880318,-0.013415418,0.29056573,-3.0034716,-2.9501736,1.2980887
1085,2026-05-11 16:09:26.347785,-0.38880318,-0.013415418,0.29056573,-3.0034716,-2.9501736,1.2980887
1086,2026-05-11 16:09:26.350910,-0.38880318,-0.013415418,0.29056573,-3.0034716,-2.9501736,1.2980887
1087,2026-05-11 16:09:26.353753,-0.38880318,-0.013415418,0.29056573,-3.0034716,-2.9501736,1.2980887
1088,2026-05-11 16:09:26.356413,-0.38880318,-0.013415418,0.29056573,-3.0034716,-2.9501736,1.2980887
1089,2026-05-11 16:09:26.359000,-0.38880318,-0.013415418,0.29056573,-3.0034716,-2.9501736,1.2980887
1090,2026-05-11 16:09:26.361793,-0.38880318,-0.013415418,0.29056573,-3.0034716,-2.9501736,1.2980887
1091,2026-05-11 16:09:26.364379,-0.38880318,-0.013415418,0.29056573,-3.0034716,-2.9501736,1.2980887
1092,2026-05-11 16:09:26.367592,-0.10781116,0.059027832,0.5274698,-2.5485299,-3.4756706,1.4056009
1093,2026-05-11 16:09:26.370351,-0.10781116,0.059027832,0.5274698,-2.5485299,-3.4756706,1.4056009
1094,2026-05-11 16:09:26.373000,-0.10781116,0.059027832,0.5274698,-2.5485299,-3.4756706,1.4056009
1095,2026-05-11 16:09:26.375575,-0.10781116,0.059027832,0.5274698,-2.5485299,-3.4756706,1.4056009
1096,2026-05-11 16:09:26.378409,-0.10781116,0.059027832,0.5274698,-2.5485299,-3.4756706,1.4056009
1097,2026-05-11 16:09:26.381162,-0.10781116,0.059027832,0.5274698,-2.5485299,-3.4756706,1.4056009
1098,2026-05-11 16:09:26.384296,0.2534294,0.26757658,0.8454762,-2.3084598,-3.7184894,1.2646438
1099,2026-05-11 16:09:26.387135,0.2534294,0.26757658,0.8454762,-2.3084598,-3.7184894,1.2646438
1100,2026-05-11 16:09:26.389875,0.2534294,0.26757658,0.8454762,-1.6114625,-4.5156684,0.81581056
1101,2026-05-11 16:09:26.392462,0.2534294,0.26757658,0.8454762,-1.6114625,-4.5156684,0.81581056
1102,2026-05-11 16:09:26.395271,0.12933682,0.36227724,0.8871249,-1.6114625,-4.5156684,0.81581056
1103,2026-05-11 16:09:26.397858,0.12933682,0.36227724,0.8871249,-1.6114625,-4.5156684,0.81581056
1104,2026-05-11 16:09:26.401129,0.12933682,0.36227724,0.8871249,-1.6114625,-4.5156684,0.81581056
1105,2026-05-11 16:09:26.403810,0.12933682,0.36227724,0.8871249,-1.6114625,-4.5156684,0.81581056
1106,2026-05-11 16:09:26.406360,0.12933682,0.36227724,0.8871249,-1.6114625,-4.5156684,0.81581056
1107,2026-05-11 16:09:26.409065,0.12933682,0.36227724,0.8871249,-1.6114625,-4.5156684,0.81581056
1108,2026-05-11 16:09:26.411793,0.07683375,0.37276566,0.8012053,-1.505172,-4.5888195,0.7648033
1109,2026-05-11 16:09:26.414458,0.07683375,0.37276566,0.8012053,-1.505172,-4.5888195,0.7648033
1110,2026-05-11 16:09:26.417567,0.07683375,0.37276566,0.8012053,-1.505172,-4.5888195,0.7648033
1111,2026-05-11 16:09:26.420461,0.07683375,0.37276566,0.8012053,-1.505172,-4.5888195,0.7648033
1112,2026-05-11 16:09:26.423113,0.07683375,0.37276566,0.8012053,-1.505172,-4.5888195,0.7648033
1113,2026-05-11 16:09:26.425687,0.07683375,0.37276566,0.8012053,-1.505172,-4.5888195,0.7648033
1114,2026-05-11 16:09:26.428254,0.07683375,0.37276566,0.8012053,-1.505172,-4.5888195,0.7648033
1115,2026-05-11 16:09:26.430773,0.07683375,0.37276566,0.8012053,-1.505172,-4.5888195,0.7648033
1116,2026-05-11 16:09:26.433901,0.06256463,0.38008317,0.6419887,-1.505172,-4.5888195,0.7648033
1117,2026-05-11 16:09:26.436862,-0.02274523,0.32697028,0.6186337,-2.8629727,-3.1838295,1.0256428
1118,2026-05-11 16:09:26.439530,-0.02274523,0.32697028,0.6186337,-2.8629727,-3.1838295,1.0256428
1119,2026-05-11 16:09:26.442229,-0.02274523,0.32697028,0.6186337,-2.8629727,-3.1838295,1.0256428
1120,2026-05-11 16:09:26.444792,-0.02274523,0.32697028,0.6186337,-2.8629727,-3.1838295,1.0256428
1121,2026-05-11 16:09:26.447542,-0.02274523,0.32697028,0.6186337,-2.8629727,-3.1838295,1.0256428
1122,2026-05-11 16:09:26.450585,-0.06738198,0.28111395,0.714249,-2.7423267,-3.2947018,0.9949468
1123,2026-05-11 16:09:26.453576,-0.0336605,0.21421981,0.9274322,-3.787059,-2.5237896,1.4590516
1124,2026-05-11 16:09:26.456215,-0.0336605,0.21421981,0.9274322,-3.787059,-2.5237896,1.4590516
1125,2026-05-11 16:09:26.458776,-0.0336605,0.21421981,0.9274322,-3.787059,-2.5237896,1.4590516
1126,2026-05-11 16:09:26.461571,-0.0336605,0.21421981,0.9274322,-3.787059,-2.5237896,1.4590516
1127,2026-05-11 16:09:26.464159,-0.0336605,0.21421981,0.9274322,-3.787059,-2.5237896,1.4590516
1128,2026-05-11 16:09:26.467033,-0.0336605,0.21421981,0.9274322,-3.787059,-2.5237896,1.4590516
1129,2026-05-11 16:09:26.469987,-0.0336605,0.21421981,0.9274322,-3.787059,-2.5237896,1.4590516
1130,2026-05-11 16:09:26.472598,-0.0336605,0.21421981,0.9274322,-3.787059,-2.5237896,1.4590516
1131,2026-05-11 16:09:26.475562,-0.0336605,0.21421981,0.9274322,-3.787059,-2.5237896,1.4590516
1132,2026-05-11 16:09:26.478359,0.41599986,0.22690348,1.2515364,-3.7748418,-2.6349673,1.6253597
1133,2026-05-11 16:09:26.481081,0.85230577,0.27233297,1.4175217,-3.2711835,-3.2598825,1.4068227
1134,2026-05-11 16:09:26.484057,0.85230577,0.27233297,1.4175217,-3.2711835,-3.2598825,1.4068227
1135,2026-05-11 16:09:26.486881,0.85230577,0.27233297,1.4175217,-3.0276008,-3.3136384,1.1432343
1136,2026-05-11 16:09:26.489703,0.85230577,0.27233297,1.4175217,-3.0276008,-3.3136384,1.1432343
1137,2026-05-11 16:09:26.492769,0.85230577,0.27233297,1.4175217,-3.0276008,-3.3136384,1.1432343
1138,2026-05-11 16:09:26.495615,0.85230577,0.27233297,1.4175217,-3.0276008,-3.3136384,1.1432343
1139,2026-05-11 16:09:26.498869,0.85230577,0.27233297,1.4175217,-3.0276008,-3.3136384,1.1432343
1140,2026-05-11 16:09:26.502536,0.85230577,0.27233297,1.4175217,-3.0276008,-3.3136384,1.1432343
1141,2026-05-11 16:09:26.505543,0.85230577,0.27233297,1.4175217,-3.0276008,-3.3136384,1.1432343
1142,2026-05-11 16:09:26.508490,0.85230577,0.27233297,1.4175217,-3.0276008,-3.3136384,1.1432343
1143,2026-05-11 16:09:26.511368,0.85230577,0.27233297,1.4175217,-3.0276008,-3.3136384,1.1432343
1144,2026-05-11 16:09:26.514170,0.85230577,0.27233297,1.4175217,-3.0276008,-3.3136384,1.1432343
1145,2026-05-11 16:09:26.517513,0.85230577,0.27233297,1.4175217,-3.0276008,-3.3136384,1.1432343
1146,2026-05-11 16:09:26.521272,0.85230577,0.27233297,1.4175217,-3.0276008,-3.3136384,1.1432343
1147,2026-05-11 16:09:26.524237,0.85230577,0.27233297,1.4175217,-3.0276008,-3.3136384,1.1432343
1148,2026-05-11 16:09:26.527452,0.85230577,0.27233297,1.4175217,-3.0276008,-3.3136384,1.1432343
1149,2026-05-11 16:09:26.530161,0.85230577,0.27233297,1.4175217,-3.0276008,-3.3136384,1.1432343
1150,2026-05-11 16:09:26.532938,0.85230577,0.27233297,1.4175217,-3.0276008,-3.3136384,1.1432343
1151,2026-05-11 16:09:26.536400,0.85230577,0.27233297,1.4175217,-3.0276008,-3.3136384,1.1432343
1152,2026-05-11 16:09:26.539261,0.85230577,0.27233297,1.4175217,-3.0276008,-3.3136384,1.1432343
1153,2026-05-11 16:09:26.542166,0.85230577,0.27233297,1.4175217,-2.6473372,-3.4793358,0.49098295
1154,2026-05-11 16:09:26.544826,0.85230577,0.27233297,1.4175217,-2.6473372,-3.4793358,0.49098295
1155,2026-05-11 16:09:26.547522,0.81096196,0.25556368,1.3744705,-2.6473372,-3.4793358,0.49098295
1156,2026-05-11 16:09:26.550661,0.43984273,0.23702602,1.4863672,-2.308307,-4.0908117,-0.0346666
1157,2026-05-11 16:09:26.553503,0.32587266,0.15446024,1.6371077,-2.0479257,-4.031405,0.0056505036
1158,2026-05-11 16:09:26.556188,0.32587266,0.15446024,1.6371077,-2.0479257,-4.031405,0.0056505036
1159,2026-05-11 16:09:26.558785,0.32587266,0.15446024,1.6371077,-2.0479257,-4.031405,0.0056505036
1160,2026-05-11 16:09:26.561556,0.32587266,0.15446024,1.6371077,-2.0479257,-4.031405,0.0056505036
1161,2026-05-11 16:09:26.564223,0.2651374,0.10768921,1.7277837,-1.5641204,-3.671911,0.19379699
1162,2026-05-11 16:09:26.567322,0.2651374,0.10768921,1.7277837,-1.5641204,-3.671911,0.19379699
1163,2026-05-11 16:09:26.570328,0.2651374,0.10768921,1.7277837,-1.5641204,-3.671911,0.19379699
1164,2026-05-11 16:09:26.572983,0.2651374,0.10768921,1.7277837,-1.5641204,-3.671911,0.19379699
1165,2026-05-11 16:09:26.575906,0.2651374,0.10768921,1.7277837,-1.5641204,-3.671911,0.19379699
1166,2026-05-11 16:09:26.578608,0.2651374,0.10768921,1.7277837,-1.5641204,-3.671911,0.19379699
1167,2026-05-11 16:09:26.581267,0.2651374,0.10768921,1.7277837,-1.5641204,-3.671911,0.19379699
1168,2026-05-11 16:09:26.584562,0.21739073,0.13067836,1.4973434,0.121256754,-3.0155363,0.8721629
1169,2026-05-11 16:09:26.587284,0.21739073,0.13067836,1.4973434,0.121256754,-3.0155363,0.8721629
1170,2026-05-11 16:09:26.589996,0.27739424,0.14586218,1.0696965,0.121256754,-3.0155363,0.8721629
1171,2026-05-11 16:09:26.592516,0.27739424,0.14586218,1.0696965,0.121256754,-3.0155363,0.8721629
1172,2026-05-11 16:09:26.595445,0.27739424,0.14586218,1.0696965,0.121256754,-3.0155363,0.8721629
1173,2026-05-11 16:09:26.598057,0.27739424,0.14586218,1.0696965,0.121256754,-3.0155363,0.8721629
1174,2026-05-11 16:09:26.601110,0.27739424,0.14586218,1.0696965,0.121256754,-3.0155363,0.8721629
1175,2026-05-11 16:09:26.603795,0.27739424,0.14586218,1.0696965,0.121256754,-3.0155363,0.8721629
1176,2026-05-11 16:09:26.606369,0.27739424,0.14586218,1.0696965,0.121256754,-3.0155363,0.8721629
1177,2026-05-11 16:09:26.608958,0.30020046,0.1548261,0.6774176,-0.04810564,-2.9616275,1.0183123
1178,2026-05-11 16:09:26.611713,0.30020046,0.1548261,0.6774176,-0.04810564,-2.9616275,1.0183123
1179,2026-05-11 16:09:26.614271,0.30020046,0.1548261,0.6774176,-0.04810564,-2.9616275,1.0183123
1180,2026-05-11 16:09:26.617304,0.30020046,0.1548261,0.6774176,-0.04810564,-2.9616275,1.0183123
1181,2026-05-11 16:09:26.620008,0.30020046,0.1548261,0.6774176,-0.04810564,-2.9616275,1.0183123
1182,2026-05-11 16:09:26.622677,0.30020046,0.1548261,0.6774176,-0.04810564,-2.9616275,1.0183123
1183,2026-05-11 16:09:26.625269,0.30020046,0.1548261,0.6774176,-0.04810564,-2.9616275,1.0183123
1184,2026-05-11 16:09:26.627878,0.30020046,0.1548261,0.6774176,-0.04810564,-2.9616275,1.0183123
1185,2026-05-11 16:09:26.630394,0.30020046,0.1548261,0.6774176,-0.04810564,-2.9616275,1.0183123
1186,2026-05-11 16:09:26.633392,0.30020046,0.1548261,0.6774176,-0.04810564,-2.9616275,1.0183123
1187,2026-05-11 16:09:26.636206,0.30020046,0.1548261,0.6774176,-0.04810564,-2.9616275,1.0183123
1188,2026-05-11 16:09:26.638876,0.30020046,0.1548261,0.6774176,-0.04810564,-2.9616275,1.0183123
1189,2026-05-11 16:09:26.641387,0.30020046,0.1548261,0.6774176,-0.04810564,-2.9616275,1.0183123
1190,2026-05-11 16:09:26.643934,0.30020046,0.1548261,0.6774176,-0.04810564,-2.9616275,1.0183123
1191,2026-05-11 16:09:26.646601,0.30020046,0.1548261,0.6774176,-0.04810564,-2.9616275,1.0183123
1192,2026-05-11 16:09:26.649161,0.30020046,0.1548261,0.6774176,-0.04810564,-2.9616275,1.0183123
1193,2026-05-11 16:09:26.652133,0.30020046,0.1548261,0.6774176,-0.04810564,-2.9616275,1.0183123
1194,2026-05-11 16:09:26.654943,0.30020046,0.1548261,0.6774176,-0.04810564,-2.9616275,1.0183123
1195,2026-05-11 16:09:26.657536,0.30020046,0.1548261,0.6774176,-0.04810564,-2.9616275,1.0183123
1196,2026-05-11 16:09:26.660156,0.30020046,0.1548261,0.6774176,-0.04810564,-2.9616275,1.0183123
1197,2026-05-11 16:09:26.662754,0.30020046,0.1548261,0.6774176,-0.04810564,-2.9616275,1.0183123
1198,2026-05-11 16:09:26.665424,0.41947567,0.19690172,0.36105764,-1.1777482,-2.840829,1.2124147
1199,2026-05-11 16:09:26.668715,0.41947567,0.19690172,0.36105764,-1.1777482,-2.840829,1.2124147
1200,2026-05-11 16:09:26.671518,0.41947567,0.19690172,0.36105764,-1.1777482,-2.840829,1.2124147
1201,2026-05-11 16:09:26.674391,0.41947567,0.19690172,0.36105764,-1.1777482,-2.840829,1.2124147
1202,2026-05-11 16:09:26.677039,0.41947567,0.19690172,0.36105764,-1.1777482,-2.840829,1.2124147
1203,2026-05-11 16:09:26.679713,0.41947567,0.19690172,0.36105764,-1.1777482,-2.840829,1.2124147
1204,2026-05-11 16:09:26.682283,0.41947567,0.19690172,0.36105764,-1.1777482,-2.840829,1.2124147
1205,2026-05-11 16:09:26.685273,0.41947567,0.19690172,0.36105764,-1.1777482,-2.840829,1.2124147
1206,2026-05-11 16:09:26.687968,0.41947567,0.19690172,0.36105764,-1.1777482,-2.840829,1.2124147
1207,2026-05-11 16:09:26.690545,0.41947567,0.19690172,0.36105764,-1.1777482,-2.840829,1.2124147
1208,2026-05-11 16:09:26.693131,0.41947567,0.19690172,0.36105764,-1.1777482,-2.840829,1.2124147
1209,2026-05-11 16:09:26.695984,0.41947567,0.19690172,0.36105764,-1.1777482,-2.840829,1.2124147
1210,2026-05-11 16:09:26.698703,0.6921136,0.1232389,0.65211123,-3.245527,-2.4459045,1.159575
1211,2026-05-11 16:09:26.701870,0.6921136,0.1232389,0.65211123,-3.245527,-2.4459045,1.159575
1212,2026-05-11 16:09:26.704565,0.6921136,0.1232389,0.65211123,-3.245527,-2.4459045,1.159575
1213,2026-05-11 16:09:26.707185,0.6921136,0.1232389,0.65211123,-3.245527,-2.4459045,1.159575
1214,2026-05-11 16:09:26.709714,0.6921136,0.1232389,0.65211123,-3.245527,-2.4459045,1.159575
1215,2026-05-11 16:09:26.712437,0.6921136,0.1232389,0.65211123,-3.245527,-2.4459045,1.159575
1216,2026-05-11 16:09:26.715007,0.6921136,0.1232389,0.65211123,-3.245527,-2.4459045,1.159575
1217,2026-05-11 16:09:26.717955,0.6921136,0.1232389,0.65211123,-3.245527,-2.4459045,1.159575
1218,2026-05-11 16:09:26.720840,0.6921136,0.1232389,0.65211123,-3.245527,-2.4459045,1.159575
1219,2026-05-11 16:09:26.723447,0.6921136,0.1232389,0.65211123,-3.245527,-2.4459045,1.159575
1220,2026-05-11 16:09:26.726031,0.6921136,0.1232389,0.65211123,-3.245527,-2.4459045,1.159575
1221,2026-05-11 16:09:26.728948,0.6921136,0.1232389,0.65211123,-3.245527,-2.4459045,1.159575
1222,2026-05-11 16:09:26.731718,0.6921136,0.1232389,0.65211123,-3.245527,-2.4459045,1.159575
1223,2026-05-11 16:09:26.734835,0.6921136,0.1232389,0.65211123,-3.245527,-2.4459045,1.159575
1224,2026-05-11 16:09:26.737627,0.6970529,0.03000175,1.0793313,-3.245527,-2.4459045,1.159575
1225,2026-05-11 16:09:26.740311,0.6970529,0.03000175,1.0793313,-3.245527,-2.4459045,1.159575
1226,2026-05-11 16:09:26.742929,0.6970529,0.03000175,1.0793313,-3.245527,-2.4459045,1.159575
1227,2026-05-11 16:09:26.745732,0.63942754,-0.040734082,1.5428948,-3.862501,-1.91155,0.8338311
1228,2026-05-11 16:09:26.748316,0.63942754,-0.040734082,1.5428948,-3.862501,-1.91155,0.8338311
1229,2026-05-11 16:09:26.751241,0.63942754,-0.040734082,1.5428948,-3.862501,-1.91155,0.8338311
1230,2026-05-11 16:09:26.754165,0.63942754,-0.040734082,1.5428948,-3.862501,-1.91155,0.8338311
1231,2026-05-11 16:09:26.756779,0.63942754,-0.040734082,1.5428948,-3.862501,-1.91155,0.8338311
1232,2026-05-11 16:09:26.759382,0.63942754,-0.040734082,1.5428948,-3.862501,-1.91155,0.8338311
1233,2026-05-11 16:09:26.762138,0.63942754,-0.040734082,1.5428948,-3.862501,-1.91155,0.8338311
1234,2026-05-11 16:09:26.764703,0.63942754,-0.040734082,1.5428948,-3.862501,-1.91155,0.8338311
1235,2026-05-11 16:09:26.767863,0.63942754,-0.040734082,1.5428948,-3.862501,-1.91155,0.8338311
1236,2026-05-11 16:09:26.770774,0.63942754,-0.040734082,1.5428948,-3.862501,-1.91155,0.8338311
1237,2026-05-11 16:09:26.773528,0.63942754,-0.040734082,1.5428948,-3.1816916,-1.7284433,0.75732017
1238,2026-05-11 16:09:26.776119,0.63942754,-0.040734082,1.5428948,-3.1816916,-1.7284433,0.75732017
1239,2026-05-11 16:09:26.779000,0.63942754,-0.040734082,1.5428948,-3.1816916,-1.7284433,0.75732017
1240,2026-05-11 16:09:26.781787,0.5656428,-0.08329754,1.8160816,-3.1816916,-1.7284433,0.75732017
1241,2026-05-11 16:09:26.784978,0.5656428,-0.08329754,1.8160816,-3.1816916,-1.7284433,0.75732017
1242,2026-05-11 16:09:26.787852,0.5656428,-0.08329754,1.8160816,-3.1816916,-1.7284433,0.75732017
1243,2026-05-11 16:09:26.790545,0.5656428,-0.08329754,1.8160816,-3.1816916,-1.7284433,0.75732017
1244,2026-05-11 16:09:26.793286,0.5656428,-0.08329754,1.8160816,-3.1816916,-1.7284433,0.75732017
1245,2026-05-11 16:09:26.796014,0.5656428,-0.08329754,1.8160816,-3.1816916,-1.7284433,0.75732017
1246,2026-05-11 16:09:26.798724,0.5656428,-0.08329754,1.8160816,-2.5320365,-1.777007,0.7298313
1247,2026-05-11 16:09:26.801740,0.5656428,-0.08329754,1.8160816,-2.5320365,-1.777007,0.7298313
1248,2026-05-11 16:09:26.804422,0.5656428,-0.08329754,1.8160816,-2.5320365,-1.777007,0.7298313
1249,2026-05-11 16:09:26.807145,0.5656428,-0.08329754,1.8160816,-2.5320365,-1.777007,0.7298313
1250,2026-05-11 16:09:26.809723,0.5656428,-0.08329754,1.8160816,-2.5320365,-1.777007,0.7298313
1251,2026-05-11 16:09:26.812734,0.5656428,-0.08329754,1.8160816,-2.5320365,-1.777007,0.7298313
1252,2026-05-11 16:09:26.815660,0.5656428,-0.08329754,1.8160816,-2.5320365,-1.777007,0.7298313
1253,2026-05-11 16:09:26.818921,0.5508248,-0.08451713,1.8953544,-2.5320365,-1.777007,0.7298313
1254,2026-05-11 16:09:26.821580,0.5508248,-0.08451713,1.8953544,-2.5320365,-1.777007,0.7298313
