id,timestamp,acc_x,acc_y,acc_z,gyro_x,gyro_y,gyro_z
1,2026-05-11 16:07:27.545750,-0.11165286,1.3544083,0.43264723,1.9918789,0.1469131,1.0543534
2,2026-05-11 16:07:27.556689,-0.38666892,1.1263462,0.3905106,2.104278,0.47952923,0.6872234
3,2026-05-11 16:07:27.560911,-0.38666892,1.1263462,0.3905106,2.104278,0.47952923,0.6872234
4,2026-05-11 16:07:27.564726,-0.38666892,1.1263462,0.3905106,2.104278,0.47952923,0.6872234
5,2026-05-11 16:07:27.568551,-0.38666892,1.1263462,0.3905106,2.104278,0.47952923,0.6872234
6,2026-05-11 16:07:27.572011,-0.38666892,1.1263462,0.3905106,2.104278,0.47952923,0.6872234
7,2026-05-11 16:07:27.575142,-0.38666892,1.1263462,0.3905106,2.104278,0.47952923,0.6872234
8,2026-05-11 16:07:27.578363,-0.38666892,1.1263462,0.3905106,2.104278,0.47952923,0.6872234
9,2026-05-11 16:07:27.581230,-0.38666892,1.1263462,0.3905106,2.104278,0.47952923,0.6872234
10,2026-05-11 16:07:27.584460,-0.38666892,1.1263462,0.3905106,2.104278,0.47952923,0.6872234
11,2026-05-11 16:07:27.587407,-0.38666892,1.1263462,0.3905106,2.104278,0.47952923,0.6872234
12,2026-05-11 16:07:27.590225,-0.38666892,1.1263462,0.3905106,2.104278,0.47952923,0.6872234
13,2026-05-11 16:07:27.592911,-0.38666892,1.1263462,0.3905106,2.104278,0.47952923,0.6872234
14,2026-05-11 16:07:27.595495,-0.38666892,1.1263462,0.3905106,2.104278,0.47952923,0.6872234
15,2026-05-11 16:07:27.598257,-0.38666892,1.1263462,0.3905106,2.104278,0.47952923,0.6872234
16,2026-05-11 16:07:27.601273,-0.38666892,1.1263462,0.3905106,2.104278,0.47952923,0.6872234
17,2026-05-11 16:07:27.604144,-0.38666892,1.1263462,0.3905106,2.104278,0.47952923,0.6872234
18,2026-05-11 16:07:27.606749,-0.38666892,1.1263462,0.3905106,2.104278,0.47952923,0.6872234
19,2026-05-11 16:07:27.609290,-0.38666892,1.1263462,0.3905106,2.104278,0.47952923,0.6872234
20,2026-05-11 16:07:27.612030,-0.38666892,1.1263462,0.3905106,2.104278,0.47952923,0.6872234
21,2026-05-11 16:07:27.614614,-0.38666892,1.1263462,0.3905106,2.104278,0.47952923,0.6872234
22,2026-05-11 16:07:27.617533,-0.38666892,1.1263462,0.3905106,2.104278,0.47952923,0.6872234
23,2026-05-11 16:07:27.620326,-0.38666892,1.1263462,0.3905106,2.104278,0.47952923,0.6872234
24,2026-05-11 16:07:27.622899,-0.38666892,1.1263462,0.3905106,2.104278,0.47952923,0.6872234
25,2026-05-11 16:07:27.625713,-0.38666892,1.1263462,0.3905106,2.104278,0.47952923,0.6872234
26,2026-05-11 16:07:27.628409,-0.38666892,1.1263462,0.3905106,2.104278,0.47952923,0.6872234
27,2026-05-11 16:07:27.631280,-0.38666892,1.1263462,0.3905106,2.104278,0.47952923,0.6872234
28,2026-05-11 16:07:27.634441,-0.38666892,1.1263462,0.3905106,2.104278,0.47952923,0.6872234
29,2026-05-11 16:07:27.637255,-0.38666892,1.1263462,0.3905106,2.104278,0.47952923,0.6872234
30,2026-05-11 16:07:27.639886,-0.38666892,1.1263462,0.3905106,2.104278,0.47952923,0.6872234
31,2026-05-11 16:07:27.642710,-0.38666892,1.1263462,0.3905106,2.4349089,0.008093964,0.87369
32,2026-05-11 16:07:27.645449,-0.38666892,1.1263462,0.3905106,2.4349089,0.008093964,0.87369
33,2026-05-11 16:07:27.648180,-0.38666892,1.1263462,0.3905106,2.4349089,0.008093964,0.87369
34,2026-05-11 16:07:27.651347,-0.38666892,1.1263462,0.3905106,2.4349089,0.008093964,0.87369
35,2026-05-11 16:07:27.654207,-0.38666892,1.1263462,0.3905106,2.4349089,0.008093964,0.87369
36,2026-05-11 16:07:27.656818,-0.38666892,1.1263462,0.3905106,2.4349089,0.008093964,0.87369
37,2026-05-11 16:07:27.659652,-0.38666892,1.1263462,0.3905106,2.4349089,0.008093964,0.87369
38,2026-05-11 16:07:27.662296,-0.38666892,1.1263462,0.3905106,2.4349089,0.008093964,0.87369
39,2026-05-11 16:07:27.665070,-0.38666892,1.1263462,0.3905106,2.4349089,0.008093964,0.87369
40,2026-05-11 16:07:27.668187,-0.38666892,1.1263462,0.3905106,2.4349089,0.008093964,0.87369
41,2026-05-11 16:07:27.670940,-0.38666892,1.1263462,0.3905106,2.4349089,0.008093964,0.87369
42,2026-05-11 16:07:27.673555,-0.38666892,1.1263462,0.3905106,2.4349089,0.008093964,0.87369
43,2026-05-11 16:07:27.676381,-0.38666892,1.1263462,0.3905106,2.4349089,0.008093964,0.87369
44,2026-05-11 16:07:27.678983,-0.38666892,1.1263462,0.3905106,2.4349089,0.008093964,0.87369
45,2026-05-11 16:07:27.681567,-0.38666892,1.1263462,0.3905106,2.4349089,0.008093964,0.87369
46,2026-05-11 16:07:27.684543,-0.38666892,1.1263462,0.3905106,2.4349089,0.008093964,0.87369
47,2026-05-11 16:07:27.687470,-0.38666892,1.1263462,0.3905106,2.4349089,0.008093964,0.87369
48,2026-05-11 16:07:27.690093,-0.38666892,1.1263462,0.3905106,2.4349089,0.008093964,0.87369
49,2026-05-11 16:07:27.692707,-0.38666892,1.1263462,0.3905106,2.4349089,0.008093964,0.87369
50,2026-05-11 16:07:27.695414,-0.38666892,1.1263462,0.3905106,2.4349089,0.008093964,0.87369
51,2026-05-11 16:07:27.698010,-0.38666892,1.1263462,0.3905106,2.4349089,0.008093964,0.87369
52,2026-05-11 16:07:27.701218,-0.38666892,1.1263462,0.3905106,2.4349089,0.008093964,0.87369
53,2026-05-11 16:07:27.704033,-0.38666892,1.1263462,0.3905106,2.4349089,0.008093964,0.87369
54,2026-05-11 16:07:27.706812,-0.38666892,1.1263462,0.3905106,2.4349089,0.008093964,0.87369
55,2026-05-11 16:07:27.709531,-0.38666892,1.1263462,0.3905106,2.4349089,0.008093964,0.87369
56,2026-05-11 16:07:27.712147,-0.38666892,1.1263462,0.3905106,2.4349089,0.008093964,0.87369
57,2026-05-11 16:07:27.714731,-0.38666892,1.1263462,0.3905106,2.4349089,0.008093964,0.87369
58,2026-05-11 16:07:27.717694,-0.38666892,1.1263462,0.3905106,2.4349089,0.008093964,0.87369
59,2026-05-11 16:07:27.720380,-0.38666892,1.1263462,0.3905106,2.4349089,0.008093964,0.87369
60,2026-05-11 16:07:27.723244,-0.38666892,1.1263462,0.3905106,2.4349089,0.008093964,0.87369
61,2026-05-11 16:07:27.726015,-0.74358,0.97938645,0.28550446,2.4349089,0.008093964,0.87369
62,2026-05-11 16:07:27.728826,-0.74358,0.97938645,0.28550446,2.4349089,0.008093964,0.87369
63,2026-05-11 16:07:27.731614,-0.74358,0.97938645,0.28550446,2.4349089,0.008093964,0.87369
64,2026-05-11 16:07:27.734712,-0.74358,0.97938645,0.28550446,2.4349089,0.008093964,0.87369
65,2026-05-11 16:07:27.737543,-0.74358,0.97938645,0.28550446,2.4349089,0.008093964,0.87369
66,2026-05-11 16:07:27.740377,-0.74358,0.97938645,0.28550446,2.4349089,0.008093964,0.87369
67,2026-05-11 16:07:27.743000,-0.74358,0.97938645,0.28550446,2.4349089,0.008093964,0.87369
68,2026-05-11 16:07:27.745724,-0.74358,0.97938645,0.28550446,2.4349089,0.008093964,0.87369
69,2026-05-11 16:07:27.748309,-0.74358,0.97938645,0.28550446,2.4349089,0.008093964,0.87369
70,2026-05-11 16:07:27.751492,-0.74358,0.97938645,0.28550446,2.4349089,0.008093964,0.87369
71,2026-05-11 16:07:27.754195,-0.74358,0.97938645,0.28550446,2.4349089,0.008093964,0.87369
72,2026-05-11 16:07:27.756840,-0.74358,0.97938645,0.28550446,2.4349089,0.008093964,0.87369
73,2026-05-11 16:07:27.759505,-0.74358,0.97938645,0.28550446,2.4349089,0.008093964,0.87369
74,2026-05-11 16:07:27.762152,-0.74358,0.97938645,0.28550446,2.4349089,0.008093964,0.87369
75,2026-05-11 16:07:27.764708,-0.74358,0.97938645,0.28550446,2.4349089,0.008093964,0.87369
76,2026-05-11 16:07:27.767711,-0.74358,0.97938645,0.28550446,2.4349089,0.008093964,0.87369
77,2026-05-11 16:07:27.770593,-0.74358,0.97938645,0.28550446,2.4349089,0.008093964,0.87369
78,2026-05-11 16:07:27.773205,-0.74358,0.97938645,0.28550446,2.4349089,0.008093964,0.87369
79,2026-05-11 16:07:27.775786,-0.74358,0.97938645,0.28550446,2.4349089,0.008093964,0.87369
80,2026-05-11 16:07:27.778607,-0.74358,0.97938645,0.28550446,2.4349089,0.008093964,0.87369
81,2026-05-11 16:07:27.781279,-0.74358,0.97938645,0.28550446,2.4349089,0.008093964,0.87369
82,2026-05-11 16:07:27.784917,-0.74358,0.97938645,0.28550446,2.4349089,0.008093964,0.87369
83,2026-05-11 16:07:27.787854,-0.74358,0.97938645,0.28550446,2.4349089,0.008093964,0.87369
84,2026-05-11 16:07:27.790596,-0.74358,0.97938645,0.28550446,2.4349089,0.008093964,0.87369
85,2026-05-11 16:07:27.793356,-0.74358,0.97938645,0.28550446,2.4349089,0.008093964,0.87369
86,2026-05-11 16:07:27.796084,-0.74358,0.97938645,0.28550446,2.4349089,0.008093964,0.87369
87,2026-05-11 16:07:27.798826,-0.74358,0.97938645,0.28550446,2.4349089,0.008093964,0.87369
88,2026-05-11 16:07:27.801954,-0.74358,0.97938645,0.28550446,2.4349089,0.008093964,0.87369
89,2026-05-11 16:07:27.804632,-0.74358,0.97938645,0.28550446,2.4349089,0.008093964,0.87369
90,2026-05-11 16:07:27.807385,-0.74358,0.97938645,0.28550446,2.4349089,0.008093964,0.87369
91,2026-05-11 16:07:27.810073,-0.74358,0.97938645,0.28550446,2.4349089,0.008093964,0.87369
92,2026-05-11 16:07:27.812751,-0.74358,0.97938645,0.28550446,2.4349089,0.008093964,0.87369
93,2026-05-11 16:07:27.815349,-0.74358,0.97938645,0.28550446,2.4349089,0.008093964,0.87369
94,2026-05-11 16:07:27.818578,-0.74358,0.97938645,0.28550446,2.4349089,0.008093964,0.87369
95,2026-05-11 16:07:27.821275,-0.74358,0.97938645,0.28550446,2.4349089,0.008093964,0.87369
96,2026-05-11 16:07:27.823896,-0.74358,0.97938645,0.28550446,2.4349089,0.008093964,0.87369
97,2026-05-11 16:07:27.826753,-0.74358,0.97938645,0.28550446,2.4349089,0.008093964,0.87369
98,2026-05-11 16:07:27.829420,-0.74358,0.97938645,0.28550446,2.4349089,0.008093964,0.87369
99,2026-05-11 16:07:27.832245,-0.74358,0.97938645,0.28550446,2.4349089,0.008093964,0.87369
100,2026-05-11 16:07:27.835315,-0.74358,0.97938645,0.28550446,2.4349089,0.008093964,0.87369
101,2026-05-11 16:07:27.838097,-0.74358,0.97938645,0.28550446,2.4349089,0.008093964,0.87369
102,2026-05-11 16:07:27.840716,-0.74358,0.97938645,0.28550446,2.4349089,0.008093964,0.87369
103,2026-05-11 16:07:27.843298,-0.74358,0.97938645,0.28550446,2.4349089,0.008093964,0.87369
104,2026-05-11 16:07:27.846056,-0.74358,0.97938645,0.28550446,2.4349089,0.008093964,0.87369
105,2026-05-11 16:07:27.848665,-0.74358,0.97938645,0.28550446,2.4349089,0.008093964,0.87369
106,2026-05-11 16:07:27.851889,-0.74358,0.97938645,0.28550446,2.4349089,0.008093964,0.87369
107,2026-05-11 16:07:27.854702,-0.74358,0.97938645,0.28550446,2.4349089,0.008093964,0.87369
108,2026-05-11 16:07:27.857302,-0.74358,0.97938645,0.28550446,2.4349089,0.008093964,0.87369
109,2026-05-11 16:07:27.859885,-0.74358,0.97938645,0.28550446,2.4349089,0.008093964,0.87369
110,2026-05-11 16:07:27.862623,-0.74358,0.97938645,0.28550446,2.4349089,0.008093964,0.87369
111,2026-05-11 16:07:27.865212,-0.74358,0.97938645,0.28550446,2.4349089,0.008093964,0.87369
112,2026-05-11 16:07:27.868223,-0.74358,0.97938645,0.28550446,2.4349089,0.008093964,0.87369
113,2026-05-11 16:07:27.870867,-0.74358,0.97938645,0.28550446,2.4349089,0.008093964,0.87369
114,2026-05-11 16:07:27.873427,-0.74358,0.97938645,0.28550446,2.4349089,0.008093964,0.87369
115,2026-05-11 16:07:27.876205,-0.74358,0.97938645,0.28550446,2.4349089,0.008093964,0.87369
116,2026-05-11 16:07:27.878823,-0.74358,0.97938645,0.28550446,2.4349089,0.008093964,0.87369
117,2026-05-11 16:07:27.881423,-0.74358,0.97938645,0.28550446,2.4349089,0.008093964,0.87369
118,2026-05-11 16:07:27.884647,-0.74358,0.97938645,0.28550446,2.4349089,0.008093964,0.87369
119,2026-05-11 16:07:27.887338,-0.74358,0.97938645,0.28550446,2.4349089,0.008093964,0.87369
120,2026-05-11 16:07:27.889942,-0.74358,0.97938645,0.28550446,2.4349089,0.008093964,0.87369
121,2026-05-11 16:07:27.892641,-0.74358,0.97938645,0.28550446,2.4349089,0.008093964,0.87369
122,2026-05-11 16:07:27.895229,-0.74358,0.97938645,0.28550446,2.4349089,0.008093964,0.87369
123,2026-05-11 16:07:27.898034,-0.74358,0.97938645,0.28550446,2.4349089,0.008093964,0.87369
124,2026-05-11 16:07:27.901037,-0.74358,0.97938645,0.28550446,2.4349089,0.008093964,0.87369
125,2026-05-11 16:07:27.903891,-0.74358,0.97938645,0.28550446,2.4349089,0.008093964,0.87369
126,2026-05-11 16:07:27.906610,-0.74358,0.97938645,0.28550446,2.4349089,0.008093964,0.87369
127,2026-05-11 16:07:27.909250,-0.74358,0.97938645,0.28550446,2.4349089,0.008093964,0.87369
128,2026-05-11 16:07:27.911968,-0.74358,0.97938645,0.28550446,2.4349089,0.008093964,0.87369
129,2026-05-11 16:07:27.914543,-0.74358,0.97938645,0.28550446,2.4349089,0.008093964,0.87369
130,2026-05-11 16:07:27.917581,-0.74358,0.97938645,0.28550446,2.4349089,0.008093964,0.87369
131,2026-05-11 16:07:27.920408,-0.74358,0.97938645,0.28550446,2.4349089,0.008093964,0.87369
132,2026-05-11 16:07:27.922998,-0.74358,0.97938645,0.28550446,2.4349089,0.008093964,0.87369
133,2026-05-11 16:07:27.925669,-0.74358,0.97938645,0.28550446,2.4349089,0.008093964,0.87369
134,2026-05-11 16:07:27.928237,-0.74358,0.97938645,0.28550446,2.4349089,0.008093964,0.87369
135,2026-05-11 16:07:27.930998,-0.74358,0.97938645,0.28550446,2.4349089,0.008093964,0.87369
136,2026-05-11 16:07:27.934027,-0.74358,0.97938645,0.28550446,2.4349089,0.008093964,0.87369
137,2026-05-11 16:07:27.936968,-0.74358,0.97938645,0.28550446,2.4349089,0.008093964,0.87369
138,2026-05-11 16:07:27.939580,-0.74358,0.97938645,0.28550446,2.4349089,0.008093964,0.87369
139,2026-05-11 16:07:27.942154,-0.74358,0.97938645,0.28550446,2.4349089,0.008093964,0.87369
140,2026-05-11 16:07:27.944891,-0.74358,0.97938645,0.28550446,2.4349089,0.008093964,0.87369
141,2026-05-11 16:07:27.947490,-0.74358,0.97938645,0.28550446,2.4349089,0.008093964,0.87369
142,2026-05-11 16:07:27.950603,-0.74358,0.97938645,0.28550446,2.4349089,0.008093964,0.87369
143,2026-05-11 16:07:27.953342,-0.74358,0.97938645,0.28550446,2.4349089,0.008093964,0.87369
144,2026-05-11 16:07:27.955954,-0.74358,0.97938645,0.28550446,2.4349089,0.008093964,0.87369
145,2026-05-11 16:07:27.958672,-0.74358,0.97938645,0.28550446,2.4349089,0.008093964,0.87369
146,2026-05-11 16:07:27.961382,-0.74358,0.97938645,0.28550446,2.4349089,0.008093964,0.87369
147,2026-05-11 16:07:27.964013,-0.74358,0.97938645,0.28550446,2.4349089,0.008093964,0.87369
148,2026-05-11 16:07:27.966689,-0.74358,0.97938645,0.28550446,2.4349089,0.008093964,0.87369
149,2026-05-11 16:07:27.969945,-0.74358,0.97938645,0.28550446,2.4349089,0.008093964,0.87369
150,2026-05-11 16:07:27.972704,-0.74358,0.97938645,0.28550446,2.4349089,0.008093964,0.87369
151,2026-05-11 16:07:27.975470,-0.74358,0.97938645,0.28550446,2.4349089,0.008093964,0.87369
152,2026-05-11 16:07:27.978082,-0.74358,0.97938645,0.28550446,2.4349089,0.008093964,0.87369
153,2026-05-11 16:07:27.980712,-0.74358,0.97938645,0.28550446,2.4349089,0.008093964,0.87369
154,2026-05-11 16:07:27.983360,-0.74358,0.97938645,0.28550446,2.4349089,0.008093964,0.87369
155,2026-05-11 16:07:27.986687,-0.74358,0.97938645,0.28550446,2.4349089,0.008093964,0.87369
156,2026-05-11 16:07:27.989317,-0.77925277,0.740592,0.15958248,2.4349089,0.008093964,0.87369
157,2026-05-11 16:07:27.992219,-0.77925277,0.740592,0.15958248,2.4349089,0.008093964,0.87369
158,2026-05-11 16:07:27.994928,-0.77925277,0.740592,0.15958248,2.4349089,0.008093964,0.87369
159,2026-05-11 16:07:27.997563,-0.77925277,0.740592,0.15958248,2.4349089,0.008093964,0.87369
160,2026-05-11 16:07:28.000294,-0.77925277,0.740592,0.15958248,2.4349089,0.008093964,0.87369
161,2026-05-11 16:07:28.003540,-0.77925277,0.740592,0.15958248,2.4349089,0.008093964,0.87369
162,2026-05-11 16:07:28.006144,-0.77925277,0.740592,0.15958248,2.4349089,0.008093964,0.87369
163,2026-05-11 16:07:28.008919,-0.77925277,0.740592,0.15958248,2.4349089,0.008093964,0.87369
164,2026-05-11 16:07:28.011541,-0.77925277,0.740592,0.15958248,2.4349089,0.008093964,0.87369
165,2026-05-11 16:07:28.014320,-0.77925277,0.740592,0.15958248,2.4349089,0.008093964,0.87369
166,2026-05-11 16:07:28.017300,-0.77925277,0.740592,0.15958248,2.4349089,0.008093964,0.87369
167,2026-05-11 16:07:28.020052,-0.77925277,0.740592,0.15958248,2.4349089,0.008093964,0.87369
168,2026-05-11 16:07:28.022885,-0.77925277,0.740592,0.15958248,2.4349089,0.008093964,0.87369
169,2026-05-11 16:07:28.025588,-0.77925277,0.740592,0.15958248,2.4349089,0.008093964,0.87369
170,2026-05-11 16:07:28.028351,-0.77925277,0.740592,0.15958248,2.4349089,0.008093964,0.87369
171,2026-05-11 16:07:28.030947,-0.77925277,0.740592,0.15958248,2.4349089,0.008093964,0.87369
172,2026-05-11 16:07:28.033859,-0.77925277,0.740592,0.15958248,2.4349089,0.008093964,0.87369
173,2026-05-11 16:07:28.036809,-0.77925277,0.740592,0.15958248,2.4349089,0.008093964,0.87369
174,2026-05-11 16:07:28.039514,-0.77925277,0.740592,0.15958248,2.4349089,0.008093964,0.87369
175,2026-05-11 16:07:28.042136,-0.77925277,0.740592,0.15958248,2.4349089,0.008093964,0.87369
176,2026-05-11 16:07:28.044947,-0.77925277,0.740592,0.15958248,2.4349089,0.008093964,0.87369
177,2026-05-11 16:07:28.047533,-0.77925277,0.740592,0.15958248,2.4349089,0.008093964,0.87369
178,2026-05-11 16:07:28.050659,-0.77925277,0.740592,0.15958248,2.4349089,0.008093964,0.87369
179,2026-05-11 16:07:28.053357,-0.77925277,0.740592,0.15958248,2.4349089,0.008093964,0.87369
180,2026-05-11 16:07:28.055978,-0.77925277,0.740592,0.15958248,2.7824912,-0.6598872,1.3658947
181,2026-05-11 16:07:28.058565,-0.77925277,0.740592,0.15958248,2.7824912,-0.6598872,1.3658947
182,2026-05-11 16:07:28.061152,-0.77925277,0.740592,0.15958248,2.7824912,-0.6598872,1.3658947
183,2026-05-11 16:07:28.063905,-0.77925277,0.740592,0.15958248,2.7824912,-0.6598872,1.3658947
184,2026-05-11 16:07:28.066574,-0.77925277,0.740592,0.15958248,2.7824912,-0.6598872,1.3658947
185,2026-05-11 16:07:28.069848,-0.77925277,0.740592,0.15958248,2.7824912,-0.6598872,1.3658947
186,2026-05-11 16:07:28.072518,-0.77925277,0.740592,0.15958248,2.7824912,-0.6598872,1.3658947
187,2026-05-11 16:07:28.075073,-0.77925277,0.740592,0.15958248,2.7824912,-0.6598872,1.3658947
188,2026-05-11 16:07:28.077979,-0.77925277,0.740592,0.15958248,2.7824912,-0.6598872,1.3658947
189,2026-05-11 16:07:28.080522,-0.77925277,0.740592,0.15958248,2.7824912,-0.6598872,1.3658947
190,2026-05-11 16:07:28.083242,-0.77925277,0.740592,0.15958248,2.7824912,-0.6598872,1.3658947
191,2026-05-11 16:07:28.086249,-0.77925277,0.740592,0.15958248,2.7824912,-0.6598872,1.3658947
192,2026-05-11 16:07:28.088927,-0.77925277,0.740592,0.15958248,2.7824912,-0.6598872,1.3658947
193,2026-05-11 16:07:28.091596,-0.77925277,0.740592,0.15958248,2.7824912,-0.6598872,1.3658947
194,2026-05-11 16:07:28.094198,-0.77925277,0.740592,0.15958248,2.7824912,-0.6598872,1.3658947
195,2026-05-11 16:07:28.096957,-0.77925277,0.740592,0.15958248,2.7824912,-0.6598872,1.3658947
196,2026-05-11 16:07:28.099584,-0.77925277,0.740592,0.15958248,2.7824912,-0.6598872,1.3658947
197,2026-05-11 16:07:28.102874,-0.77925277,0.740592,0.15958248,2.7824912,-0.6598872,1.3658947
198,2026-05-11 16:07:28.105545,-0.77925277,0.740592,0.15958248,2.7824912,-0.6598872,1.3658947
199,2026-05-11 16:07:28.108283,-0.77925277,0.740592,0.15958248,2.7824912,-0.6598872,1.3658947
200,2026-05-11 16:07:28.110863,-0.77925277,0.740592,0.15958248,2.7824912,-0.6598872,1.3658947
201,2026-05-11 16:07:28.113501,-0.77925277,0.740592,0.15958248,2.7824912,-0.6598872,1.3658947
202,2026-05-11 16:07:28.116079,-0.77925277,0.740592,0.15958248,2.7824912,-0.6598872,1.3658947
203,2026-05-11 16:07:28.119203,-0.77925277,0.740592,0.15958248,2.7824912,-0.6598872,1.3658947
204,2026-05-11 16:07:28.121868,-0.77925277,0.740592,0.15958248,2.7824912,-0.6598872,1.3658947
205,2026-05-11 16:07:28.124670,-0.77925277,0.740592,0.15958248,2.7824912,-0.6598872,1.3658947
206,2026-05-11 16:07:28.127276,-0.77925277,0.740592,0.15958248,2.7824912,-0.6598872,1.3658947
207,2026-05-11 16:07:28.129955,-0.77925277,0.740592,0.15958248,2.7824912,-0.6598872,1.3658947
208,2026-05-11 16:07:28.132522,-0.77925277,0.740592,0.15958248,2.7824912,-0.6598872,1.3658947
209,2026-05-11 16:07:28.135539,-0.77925277,0.740592,0.15958248,2.7824912,-0.6598872,1.3658947
210,2026-05-11 16:07:28.138175,-0.77925277,0.740592,0.15958248,2.7824912,-0.6598872,1.3658947
211,2026-05-11 16:07:28.140741,-0.77925277,0.740592,0.15958248,2.7824912,-0.6598872,1.3658947
212,2026-05-11 16:07:28.143496,-0.77925277,0.740592,0.15958248,2.7824912,-0.6598872,1.3658947
213,2026-05-11 16:07:28.146083,-0.77925277,0.740592,0.15958248,2.7824912,-0.6598872,1.3658947
214,2026-05-11 16:07:28.148753,-0.77925277,0.740592,0.15958248,2.7824912,-0.6598872,1.3658947
215,2026-05-11 16:07:28.152179,-0.77925277,0.740592,0.15958248,2.7824912,-0.6598872,1.3658947
216,2026-05-11 16:07:28.155046,-0.77925277,0.740592,0.15958248,2.7824912,-0.6598872,1.3658947
217,2026-05-11 16:07:28.157697,-0.77925277,0.740592,0.15958248,2.7824912,-0.6598872,1.3658947
218,2026-05-11 16:07:28.160310,-0.77925277,0.740592,0.15958248,2.7824912,-0.6598872,1.3658947
219,2026-05-11 16:07:28.163049,-0.77925277,0.740592,0.15958248,2.7824912,-0.6598872,1.3658947
220,2026-05-11 16:07:28.165662,-0.7068705,0.6460133,0.09823744,2.7824912,-0.6598872,1.3658947
221,2026-05-11 16:07:28.168874,-0.7068705,0.6460133,0.09823744,2.7824912,-0.6598872,1.3658947
222,2026-05-11 16:07:28.171618,-0.7068705,0.6460133,0.09823744,2.7824912,-0.6598872,1.3658947
223,2026-05-11 16:07:28.174400,-0.7068705,0.6460133,0.09823744,2.7824912,-0.6598872,1.3658947
224,2026-05-11 16:07:28.177008,-0.7068705,0.6460133,0.09823744,2.7824912,-0.6598872,1.3658947
225,2026-05-11 16:07:28.179665,-0.7068705,0.6460133,0.09823744,2.7824912,-0.6598872,1.3658947
226,2026-05-11 16:07:28.182232,-0.7068705,0.6460133,0.09823744,2.7824912,-0.6598872,1.3658947
227,2026-05-11 16:07:28.185477,-0.7068705,0.6460133,0.09823744,2.7824912,-0.6598872,1.3658947
228,2026-05-11 16:07:28.188262,-0.7068705,0.6460133,0.09823744,2.7824912,-0.6598872,1.3658947
229,2026-05-11 16:07:28.190967,-0.7068705,0.6460133,0.09823744,2.7824912,-0.6598872,1.3658947
230,2026-05-11 16:07:28.193621,-0.7068705,0.6460133,0.09823744,2.7824912,-0.6598872,1.3658947
231,2026-05-11 16:07:28.196298,-0.7068705,0.6460133,0.09823744,2.7824912,-0.6598872,1.3658947
232,2026-05-11 16:07:28.198978,-0.7068705,0.6460133,0.09823744,2.7824912,-0.6598872,1.3658947
233,2026-05-11 16:07:28.202078,-0.7068705,0.6460133,0.09823744,3.1177034,-1.1979067,1.8886427
234,2026-05-11 16:07:28.204919,-0.7068705,0.6460133,0.09823744,3.1177034,-1.1979067,1.8886427
235,2026-05-11 16:07:28.207474,-0.7068705,0.6460133,0.09823744,3.1177034,-1.1979067,1.8886427
236,2026-05-11 16:07:28.210095,-0.7068705,0.6460133,0.09823744,3.1177034,-1.1979067,1.8886427
237,2026-05-11 16:07:28.212636,-0.7068705,0.6460133,0.09823744,3.1177034,-1.1979067,1.8886427
238,2026-05-11 16:07:28.215187,-0.7068705,0.6460133,0.09823744,3.1177034,-1.1979067,1.8886427
239,2026-05-11 16:07:28.218320,-0.7068705,0.6460133,0.09823744,3.1177034,-1.1979067,1.8886427
240,2026-05-11 16:07:28.221115,-0.7068705,0.6460133,0.09823744,3.1177034,-1.1979067,1.8886427
241,2026-05-11 16:07:28.223792,-0.7068705,0.6460133,0.09823744,3.1177034,-1.1979067,1.8886427
242,2026-05-11 16:07:28.226378,-0.7068705,0.6460133,0.09823744,3.1177034,-1.1979067,1.8886427
243,2026-05-11 16:07:28.228931,-0.7068705,0.6460133,0.09823744,3.1177034,-1.1979067,1.8886427
244,2026-05-11 16:07:28.231802,-0.7068705,0.6460133,0.09823744,3.1177034,-1.1979067,1.8886427
245,2026-05-11 16:07:28.234899,-0.7068705,0.6460133,0.09823744,3.1177034,-1.1979067,1.8886427
246,2026-05-11 16:07:28.237742,-0.7068705,0.6460133,0.09823744,3.1177034,-1.1979067,1.8886427
247,2026-05-11 16:07:28.240341,-0.7068705,0.6460133,0.09823744,3.1177034,-1.1979067,1.8886427
248,2026-05-11 16:07:28.242940,-0.7068705,0.6460133,0.09823744,3.1177034,-1.1979067,1.8886427
249,2026-05-11 16:07:28.245490,-0.7068705,0.6460133,0.09823744,3.1177034,-1.1979067,1.8886427
250,2026-05-11 16:07:28.248288,-0.7068705,0.6460133,0.09823744,3.1177034,-1.1979067,1.8886427
251,2026-05-11 16:07:28.251281,-0.7068705,0.6460133,0.09823744,3.1177034,-1.1979067,1.8886427
252,2026-05-11 16:07:28.254183,-0.7068705,0.6460133,0.09823744,3.1177034,-1.1979067,1.8886427
253,2026-05-11 16:07:28.256798,-0.7068705,0.6460133,0.09823744,3.1177034,-1.1979067,1.8886427
254,2026-05-11 16:07:28.259364,-0.7068705,0.6460133,0.09823744,3.1177034,-1.1979067,1.8886427
255,2026-05-11 16:07:28.262222,-0.7068705,0.6460133,0.09823744,3.1177034,-1.1979067,1.8886427
256,2026-05-11 16:07:28.264813,-0.7068705,0.6460133,0.09823744,3.1177034,-1.1979067,1.8886427
257,2026-05-11 16:07:28.267833,-0.7068705,0.6460133,0.09823744,3.1177034,-1.1979067,1.8886427
258,2026-05-11 16:07:28.270697,-0.7068705,0.6460133,0.09823744,3.1177034,-1.1979067,1.8886427
259,2026-05-11 16:07:28.273318,-0.7068705,0.6460133,0.09823744,3.1177034,-1.1979067,1.8886427
260,2026-05-11 16:07:28.275916,-0.7068705,0.6460133,0.09823744,3.1177034,-1.1979067,1.8886427
261,2026-05-11 16:07:28.278704,-0.7068705,0.6460133,0.09823744,3.1177034,-1.1979067,1.8886427
262,2026-05-11 16:07:28.281297,-0.7068705,0.6460133,0.09823744,3.1177034,-1.1979067,1.8886427
263,2026-05-11 16:07:28.284366,-0.7068705,0.6460133,0.09823744,3.1177034,-1.1979067,1.8886427
264,2026-05-11 16:07:28.287141,-0.7068705,0.6460133,0.09823744,3.1177034,-1.1979067,1.8886427
265,2026-05-11 16:07:28.289854,-0.7068705,0.6460133,0.09823744,3.1177034,-1.1979067,1.8886427
266,2026-05-11 16:07:28.292471,-0.7068705,0.6460133,0.09823744,3.1177034,-1.1979067,1.8886427
267,2026-05-11 16:07:28.295180,-0.7068705,0.6460133,0.09823744,3.1177034,-1.1979067,1.8886427
268,2026-05-11 16:07:28.297736,-0.7068705,0.6460133,0.09823744,3.1177034,-1.1979067,1.8886427
269,2026-05-11 16:07:28.300708,-0.7068705,0.6460133,0.09823744,3.1177034,-1.1979067,1.8886427
270,2026-05-11 16:07:28.303676,-0.7068705,0.6460133,0.09823744,3.1177034,-1.1979067,1.8886427
271,2026-05-11 16:07:28.306278,-0.7068705,0.6460133,0.09823744,3.1177034,-1.1979067,1.8886427
272,2026-05-11 16:07:28.308863,-0.7068705,0.6460133,0.09823744,3.1177034,-1.1979067,1.8886427
273,2026-05-11 16:07:28.311628,-0.7068705,0.6460133,0.09823744,3.1177034,-1.1979067,1.8886427
274,2026-05-11 16:07:28.314323,-0.5377753,0.54332435,0.021769563,3.1177034,-1.1979067,1.8886427
275,2026-05-11 16:07:28.317465,-0.5377753,0.54332435,0.021769563,3.1177034,-1.1979067,1.8886427
276,2026-05-11 16:07:28.320452,-0.5377753,0.54332435,0.021769563,3.1177034,-1.1979067,1.8886427
277,2026-05-11 16:07:28.323108,-0.5377753,0.54332435,0.021769563,3.1177034,-1.1979067,1.8886427
278,2026-05-11 16:07:28.325812,-0.5377753,0.54332435,0.021769563,3.1177034,-1.1979067,1.8886427
279,2026-05-11 16:07:28.328608,-0.5377753,0.54332435,0.021769563,3.1177034,-1.1979067,1.8886427
280,2026-05-11 16:07:28.331214,-0.5377753,0.54332435,0.021769563,3.1177034,-1.1979067,1.8886427
281,2026-05-11 16:07:28.334257,-0.5377753,0.54332435,0.021769563,3.1177034,-1.1979067,1.8886427
282,2026-05-11 16:07:28.337033,-0.5377753,0.54332435,0.021769563,3.1177034,-1.1979067,1.8886427
283,2026-05-11 16:07:28.339844,-0.5377753,0.54332435,0.021769563,3.1177034,-1.1979067,1.8886427
284,2026-05-11 16:07:28.342453,-0.5377753,0.54332435,0.021769563,3.1177034,-1.1979067,1.8886427
285,2026-05-11 16:07:28.345184,-0.5377753,0.54332435,0.021769563,3.3169982,-1.5074627,2.117259
286,2026-05-11 16:07:28.347760,-0.5377753,0.54332435,0.021769563,3.3169982,-1.5074627,2.117259
287,2026-05-11 16:07:28.350869,-0.5377753,0.54332435,0.021769563,3.3169982,-1.5074627,2.117259
288,2026-05-11 16:07:28.353912,-0.5377753,0.54332435,0.021769563,3.3169982,-1.5074627,2.117259
289,2026-05-11 16:07:28.356723,-0.5377753,0.54332435,0.021769563,3.3169982,-1.5074627,2.117259
290,2026-05-11 16:07:28.359534,-0.5377753,0.54332435,0.021769563,3.3169982,-1.5074627,2.117259
291,2026-05-11 16:07:28.362162,-0.5377753,0.54332435,0.021769563,3.3169982,-1.5074627,2.117259
292,2026-05-11 16:07:28.364741,-0.5377753,0.54332435,0.021769563,3.3169982,-1.5074627,2.117259
293,2026-05-11 16:07:28.367789,-0.5377753,0.54332435,0.021769563,3.3169982,-1.5074627,2.117259
294,2026-05-11 16:07:28.370740,-0.5377753,0.54332435,0.021769563,3.3169982,-1.5074627,2.117259
295,2026-05-11 16:07:28.373383,-0.5377753,0.54332435,0.021769563,3.3169982,-1.5074627,2.117259
296,2026-05-11 16:07:28.375980,-0.5377753,0.54332435,0.021769563,3.3169982,-1.5074627,2.117259
297,2026-05-11 16:07:28.378665,-0.5377753,0.54332435,0.021769563,3.3169982,-1.5074627,2.117259
298,2026-05-11 16:07:28.381212,-0.5377753,0.54332435,0.021769563,3.3169982,-1.5074627,2.117259
299,2026-05-11 16:07:28.384132,-0.5377753,0.54332435,0.021769563,3.3169982,-1.5074627,2.117259
300,2026-05-11 16:07:28.387060,-0.5377753,0.54332435,0.021769563,3.3169982,-1.5074627,2.117259
301,2026-05-11 16:07:28.389697,-0.5377753,0.54332435,0.021769563,3.3169982,-1.5074627,2.117259
302,2026-05-11 16:07:28.392314,-0.5377753,0.54332435,0.021769563,3.3169982,-1.5074627,2.117259
303,2026-05-11 16:07:28.394878,-0.5377753,0.54332435,0.021769563,3.3169982,-1.5074627,2.117259
304,2026-05-11 16:07:28.397747,-0.5377753,0.54332435,0.021769563,3.3169982,-1.5074627,2.117259
305,2026-05-11 16:07:28.400885,-0.5377753,0.54332435,0.021769563,3.3169982,-1.5074627,2.117259
306,2026-05-11 16:07:28.403822,-0.5377753,0.54332435,0.021769563,3.3169982,-1.5074627,2.117259
307,2026-05-11 16:07:28.406415,-0.5377753,0.54332435,0.021769563,3.3169982,-1.5074627,2.117259
308,2026-05-11 16:07:28.409180,-0.5377753,0.54332435,0.021769563,3.3169982,-1.5074627,2.117259
309,2026-05-11 16:07:28.411788,-0.5377753,0.54332435,0.021769563,3.3169982,-1.5074627,2.117259
310,2026-05-11 16:07:28.414578,-0.5377753,0.54332435,0.021769563,3.3169982,-1.5074627,2.117259
311,2026-05-11 16:07:28.417637,-0.5377753,0.54332435,0.021769563,3.3169982,-1.5074627,2.117259
312,2026-05-11 16:07:28.420580,-0.5377753,0.54332435,0.021769563,3.3169982,-1.5074627,2.117259
313,2026-05-11 16:07:28.423187,-0.5377753,0.54332435,0.021769563,3.3169982,-1.5074627,2.117259
314,2026-05-11 16:07:28.425987,-0.5377753,0.54332435,0.021769563,3.3169982,-1.5074627,2.117259
315,2026-05-11 16:07:28.428572,-0.5377753,0.54332435,0.021769563,3.3169982,-1.5074627,2.117259
316,2026-05-11 16:07:28.431276,-0.5377753,0.54332435,0.021769563,3.3169982,-1.5074627,2.117259
317,2026-05-11 16:07:28.434068,-0.5377753,0.54332435,0.021769563,3.3169982,-1.5074627,2.117259
318,2026-05-11 16:07:28.437003,-0.5377753,0.54332435,0.021769563,3.3169982,-1.5074627,2.117259
319,2026-05-11 16:07:28.439601,-0.5377753,0.54332435,0.021769563,3.3169982,-1.5074627,2.117259
320,2026-05-11 16:07:28.442154,-0.5377753,0.54332435,0.021769563,3.3169982,-1.5074627,2.117259
321,2026-05-11 16:07:28.444868,-0.5377753,0.54332435,0.021769563,3.3169982,-1.5074627,2.117259
322,2026-05-11 16:07:28.447468,-0.5377753,0.54332435,0.021769563,3.3169982,-1.5074627,2.117259
323,2026-05-11 16:07:28.469538,2.1462836,0.09793254,0.23086715,1.472338,-1.3570372,2.414445
324,2026-05-11 16:07:28.472572,2.1462836,0.09793254,0.23086715,1.472338,-1.3570372,2.414445
325,2026-05-11 16:07:28.477808,2.1462836,0.09793254,0.23086715,1.472338,-1.3570372,2.414445
326,2026-05-11 16:07:28.482930,2.1462836,0.09793254,0.23086715,1.472338,-1.3570372,2.414445
327,2026-05-11 16:07:28.488262,2.1462836,0.09793254,0.23086715,1.472338,-1.3570372,2.414445
328,2026-05-11 16:07:28.491234,2.3212938,0.3890471,0.46941763,1.472338,-1.3570372,2.414445
329,2026-05-11 16:07:28.494099,2.3212938,0.3890471,0.46941763,1.472338,-1.3570372,2.414445
330,2026-05-11 16:07:28.496750,2.3212938,0.3890471,0.46941763,1.472338,-1.3570372,2.414445
331,2026-05-11 16:07:28.499357,2.3212938,0.3890471,0.46941763,1.472338,-1.3570372,2.414445
332,2026-05-11 16:07:28.502416,2.3212938,0.3890471,0.46941763,1.472338,-1.3570372,2.414445
333,2026-05-11 16:07:28.505246,2.3212938,0.3890471,0.46941763,1.472338,-1.3570372,2.414445
334,2026-05-11 16:07:28.507824,2.3212938,0.3890471,0.46941763,1.472338,-1.3570372,2.414445
335,2026-05-11 16:07:28.510577,2.3212938,0.3890471,0.46941763,1.472338,-1.3570372,2.414445
336,2026-05-11 16:07:28.513187,2.3212938,0.3890471,0.46941763,1.472338,-1.3570372,2.414445
337,2026-05-11 16:07:28.515853,2.3212938,0.3890471,0.46941763,1.472338,-1.3570372,2.414445
338,2026-05-11 16:07:28.518932,2.3212938,0.3890471,0.46941763,1.472338,-1.3570372,2.414445
339,2026-05-11 16:07:28.521826,2.3212938,0.3890471,0.46941763,1.472338,-1.3570372,2.414445
340,2026-05-11 16:07:28.524426,2.3212938,0.3890471,0.46941763,1.472338,-1.3570372,2.414445
341,2026-05-11 16:07:28.526986,2.3212938,0.3890471,0.46941763,1.472338,-1.3570372,2.414445
342,2026-05-11 16:07:28.529803,2.3212938,0.3890471,0.46941763,1.472338,-1.3570372,2.414445
343,2026-05-11 16:07:28.532401,2.3212938,0.3890471,0.46941763,1.472338,-1.3570372,2.414445
344,2026-05-11 16:07:28.535446,2.3212938,0.3890471,0.46941763,1.472338,-1.3570372,2.414445
345,2026-05-11 16:07:28.538108,2.3212938,0.3890471,0.46941763,1.472338,-1.3570372,2.414445
346,2026-05-11 16:07:28.540803,2.3212938,0.3890471,0.46941763,1.472338,-1.3570372,2.414445
347,2026-05-11 16:07:28.543498,2.3212938,0.3890471,0.46941763,1.472338,-1.3570372,2.414445
348,2026-05-11 16:07:28.546062,2.3212938,0.3890471,0.46941763,1.472338,-1.3570372,2.414445
349,2026-05-11 16:07:28.548677,2.3212938,0.3890471,0.46941763,1.472338,-1.3570372,2.414445
350,2026-05-11 16:07:28.551781,2.3212938,0.3890471,0.46941763,1.472338,-1.3570372,2.414445
351,2026-05-11 16:07:28.554461,2.3212938,0.3890471,0.46941763,1.472338,-1.3570372,2.414445
352,2026-05-11 16:07:28.557063,2.3212938,0.3890471,0.46941763,1.472338,-1.3570372,2.414445
353,2026-05-11 16:07:28.559609,2.3212938,0.3890471,0.46941763,1.472338,-1.3570372,2.414445
354,2026-05-11 16:07:28.562336,2.3212938,0.3890471,0.46941763,1.472338,-1.3570372,2.414445
355,2026-05-11 16:07:28.564908,2.3212938,0.3890471,0.46941763,1.472338,-1.3570372,2.414445
356,2026-05-11 16:07:28.567825,2.3212938,0.3890471,0.46941763,1.472338,-1.3570372,2.414445
357,2026-05-11 16:07:28.571238,2.3212938,0.3890471,0.46941763,1.472338,-1.3570372,2.414445
358,2026-05-11 16:07:28.573959,2.3212938,0.3890471,0.46941763,1.472338,-1.3570372,2.414445
359,2026-05-11 16:07:28.576512,2.3212938,0.3890471,0.46941763,1.472338,-1.3570372,2.414445
360,2026-05-11 16:07:28.579181,2.3212938,0.3890471,0.46941763,1.472338,-1.3570372,2.414445
361,2026-05-11 16:07:28.581738,2.3212938,0.3890471,0.46941763,1.472338,-1.3570372,2.414445
362,2026-05-11 16:07:28.584771,2.3212938,0.3890471,0.46941763,1.472338,-1.3570372,2.414445
363,2026-05-11 16:07:28.588254,2.3212938,0.3890471,0.46941763,1.472338,-1.3570372,2.414445
364,2026-05-11 16:07:28.591148,2.3212938,0.3890471,0.46941763,1.472338,-1.3570372,2.414445
365,2026-05-11 16:07:28.593924,2.3212938,0.3890471,0.46941763,1.472338,-1.3570372,2.414445
366,2026-05-11 16:07:28.596499,2.3212938,0.3890471,0.46941763,1.472338,-1.3570372,2.414445
367,2026-05-11 16:07:28.599232,2.3212938,0.3890471,0.46941763,1.472338,-1.3570372,2.414445
368,2026-05-11 16:07:28.602192,2.3212938,0.3890471,0.46941763,1.472338,-1.3570372,2.414445
369,2026-05-11 16:07:28.604944,2.3212938,0.3890471,0.46941763,1.472338,-1.3570372,2.414445
370,2026-05-11 16:07:28.607692,2.3212938,0.3890471,0.46941763,1.472338,-1.3570372,2.414445
371,2026-05-11 16:07:28.610315,2.3212938,0.3890471,0.46941763,1.472338,-1.3570372,2.414445
372,2026-05-11 16:07:28.613186,2.3212938,0.3890471,0.46941763,1.472338,-1.3570372,2.414445
373,2026-05-11 16:07:28.615899,2.3212938,0.3890471,0.46941763,2.193617,-1.2484559,1.9291124
374,2026-05-11 16:07:28.618890,2.3212938,0.3890471,0.46941763,2.193617,-1.2484559,1.9291124
375,2026-05-11 16:07:28.621612,2.3212938,0.3890471,0.46941763,2.193617,-1.2484559,1.9291124
376,2026-05-11 16:07:28.624357,2.3212938,0.3890471,0.46941763,2.193617,-1.2484559,1.9291124
377,2026-05-11 16:07:28.626986,2.3212938,0.3890471,0.46941763,2.193617,-1.2484559,1.9291124
378,2026-05-11 16:07:28.629848,2.3212938,0.3890471,0.46941763,2.193617,-1.2484559,1.9291124
379,2026-05-11 16:07:28.632474,2.3212938,0.3890471,0.46941763,2.193617,-1.2484559,1.9291124
380,2026-05-11 16:07:28.635658,2.3212938,0.3890471,0.46941763,2.193617,-1.2484559,1.9291124
381,2026-05-11 16:07:28.638346,2.3212938,0.3890471,0.46941763,2.193617,-1.2484559,1.9291124
382,2026-05-11 16:07:28.641179,2.476059,0.47380814,0.40502363,2.193617,-1.2484559,1.9291124
383,2026-05-11 16:07:28.643900,2.476059,0.47380814,0.40502363,2.193617,-1.2484559,1.9291124
384,2026-05-11 16:07:28.646438,2.476059,0.47380814,0.40502363,2.193617,-1.2484559,1.9291124
385,2026-05-11 16:07:28.649045,2.476059,0.47380814,0.40502363,2.193617,-1.2484559,1.9291124
386,2026-05-11 16:07:28.652088,2.476059,0.47380814,0.40502363,2.193617,-1.2484559,1.9291124
387,2026-05-11 16:07:28.654862,2.476059,0.47380814,0.40502363,2.193617,-1.2484559,1.9291124
388,2026-05-11 16:07:28.657453,2.476059,0.47380814,0.40502363,2.193617,-1.2484559,1.9291124
389,2026-05-11 16:07:28.659968,2.476059,0.47380814,0.40502363,2.193617,-1.2484559,1.9291124
390,2026-05-11 16:07:28.662685,2.476059,0.47380814,0.40502363,2.193617,-1.2484559,1.9291124
391,2026-05-11 16:07:28.665240,2.476059,0.47380814,0.40502363,2.193617,-1.2484559,1.9291124
392,2026-05-11 16:07:28.668192,2.476059,0.47380814,0.40502363,2.193617,-1.2484559,1.9291124
393,2026-05-11 16:07:28.670845,2.476059,0.47380814,0.40502363,2.193617,-1.2484559,1.9291124
394,2026-05-11 16:07:28.673375,2.476059,0.47380814,0.40502363,2.193617,-1.2484559,1.9291124
395,2026-05-11 16:07:28.676099,2.476059,0.47380814,0.40502363,2.193617,-1.2484559,1.9291124
396,2026-05-11 16:07:28.678694,2.476059,0.47380814,0.40502363,2.193617,-1.2484559,1.9291124
397,2026-05-11 16:07:28.681342,2.476059,0.47380814,0.40502363,2.193617,-1.2484559,1.9291124
398,2026-05-11 16:07:28.684257,2.476059,0.47380814,0.40502363,2.193617,-1.2484559,1.9291124
399,2026-05-11 16:07:28.686915,2.476059,0.47380814,0.40502363,2.193617,-1.2484559,1.9291124
400,2026-05-11 16:07:28.689529,2.476059,0.47380814,0.40502363,2.193617,-1.2484559,1.9291124
401,2026-05-11 16:07:28.692228,2.476059,0.47380814,0.40502363,2.193617,-1.2484559,1.9291124
402,2026-05-11 16:07:28.694805,2.476059,0.47380814,0.40502363,2.193617,-1.2484559,1.9291124
403,2026-05-11 16:07:28.697384,2.476059,0.47380814,0.40502363,2.193617,-1.2484559,1.9291124
404,2026-05-11 16:07:28.700579,2.476059,0.47380814,0.40502363,2.193617,-1.2484559,1.9291124
405,2026-05-11 16:07:28.703298,2.476059,0.47380814,0.40502363,2.193617,-1.2484559,1.9291124
406,2026-05-11 16:07:28.705864,2.476059,0.47380814,0.40502363,2.193617,-1.2484559,1.9291124
407,2026-05-11 16:07:28.708561,2.476059,0.47380814,0.40502363,2.193617,-1.2484559,1.9291124
408,2026-05-11 16:07:28.711167,2.476059,0.47380814,0.40502363,2.193617,-1.2484559,1.9291124
409,2026-05-11 16:07:28.713725,2.476059,0.47380814,0.40502363,2.193617,-1.2484559,1.9291124
410,2026-05-11 16:07:28.716388,2.476059,0.47380814,0.40502363,2.193617,-1.2484559,1.9291124
411,2026-05-11 16:07:28.719556,2.5415506,0.50771254,0.12348281,2.193617,-1.2484559,1.9291124
412,2026-05-11 16:07:28.722284,2.5415506,0.50771254,0.12348281,2.193617,-1.2484559,1.9291124
413,2026-05-11 16:07:28.724891,2.5415506,0.50771254,0.12348281,2.193617,-1.2484559,1.9291124
414,2026-05-11 16:07:28.727804,2.5415506,0.50771254,0.12348281,2.193617,-1.2484559,1.9291124
415,2026-05-11 16:07:28.730499,2.5415506,0.50771254,0.12348281,2.193617,-1.2484559,1.9291124
416,2026-05-11 16:07:28.733514,2.5415506,0.50771254,0.12348281,2.193617,-1.2484559,1.9291124
417,2026-05-11 16:07:28.736338,2.5415506,0.50771254,0.12348281,2.193617,-1.2484559,1.9291124
418,2026-05-11 16:07:28.738954,2.5415506,0.50771254,0.12348281,2.193617,-1.2484559,1.9291124
419,2026-05-11 16:07:28.741537,2.5415506,0.50771254,0.12348281,2.193617,-1.2484559,1.9291124
420,2026-05-11 16:07:28.744266,2.5415506,0.50771254,0.12348281,2.193617,-1.2484559,1.9291124
421,2026-05-11 16:07:28.746822,2.5415506,0.50771254,0.12348281,2.193617,-1.2484559,1.9291124
422,2026-05-11 16:07:28.749382,2.5415506,0.50771254,0.12348281,2.193617,-1.2484559,1.9291124
423,2026-05-11 16:07:28.752349,2.5415506,0.50771254,0.12348281,2.193617,-1.2484559,1.9291124
424,2026-05-11 16:07:28.754940,2.5415506,0.50771254,0.12348281,2.193617,-1.2484559,1.9291124
425,2026-05-11 16:07:28.757477,2.5415506,0.50771254,0.12348281,2.193617,-1.2484559,1.9291124
426,2026-05-11 16:07:28.760222,2.5415506,0.50771254,0.12348281,2.193617,-1.2484559,1.9291124
427,2026-05-11 16:07:28.762855,2.5415506,0.50771254,0.12348281,2.193617,-1.2484559,1.9291124
428,2026-05-11 16:07:28.765436,2.5415506,0.50771254,0.12348281,2.193617,-1.2484559,1.9291124
429,2026-05-11 16:07:28.768803,2.5415506,0.50771254,0.12348281,2.193617,-1.2484559,1.9291124
430,2026-05-11 16:07:28.771455,2.5415506,0.50771254,0.12348281,2.193617,-1.2484559,1.9291124
431,2026-05-11 16:07:28.774200,2.5415506,0.50771254,0.12348281,2.193617,-1.2484559,1.9291124
432,2026-05-11 16:07:28.776794,2.5415506,0.50771254,0.12348281,2.193617,-1.2484559,1.9291124
433,2026-05-11 16:07:28.779502,2.5415506,0.50771254,0.12348281,2.193617,-1.2484559,1.9291124
434,2026-05-11 16:07:28.782081,2.5415506,0.50771254,0.12348281,2.193617,-1.2484559,1.9291124
435,2026-05-11 16:07:28.785175,2.5415506,0.50771254,0.12348281,2.193617,-1.2484559,1.9291124
436,2026-05-11 16:07:28.787877,2.5415506,0.50771254,0.12348281,2.193617,-1.2484559,1.9291124
437,2026-05-11 16:07:28.790455,2.5415506,0.50771254,0.12348281,2.193617,-1.2484559,1.9291124
438,2026-05-11 16:07:28.792997,2.5415506,0.50771254,0.12348281,2.193617,-1.2484559,1.9291124
439,2026-05-11 16:07:28.795821,2.5415506,0.50771254,0.12348281,2.193617,-1.2484559,1.9291124
440,2026-05-11 16:07:28.798391,2.5415506,0.50771254,0.12348281,2.193617,-1.2484559,1.9291124
441,2026-05-11 16:07:28.801477,2.5415506,0.50771254,0.12348281,2.193617,-1.2484559,1.9291124
442,2026-05-11 16:07:28.804120,2.5415506,0.50771254,0.12348281,2.193617,-1.2484559,1.9291124
443,2026-05-11 16:07:28.806687,2.5415506,0.50771254,0.12348281,2.193617,-1.2484559,1.9291124
444,2026-05-11 16:07:28.809273,2.5415506,0.50771254,0.12348281,2.193617,-1.2484559,1.9291124
445,2026-05-11 16:07:28.811790,2.5415506,0.50771254,0.12348281,2.193617,-1.2484559,1.9291124
446,2026-05-11 16:07:28.814348,2.5415506,0.50771254,0.12348281,2.193617,-1.2484559,1.9291124
447,2026-05-11 16:07:28.817361,2.5415506,0.50771254,0.12348281,2.193617,-1.2484559,1.9291124
448,2026-05-11 16:07:28.820155,2.5415506,0.50771254,0.12348281,2.193617,-1.2484559,1.9291124
449,2026-05-11 16:07:28.822738,2.5415506,0.50771254,0.12348281,2.193617,-1.2484559,1.9291124
450,2026-05-11 16:07:28.825590,2.5415506,0.50771254,0.12348281,2.193617,-1.2484559,1.9291124
451,2026-05-11 16:07:28.828364,2.5415506,0.50771254,0.12348281,2.905886,-1.1543826,1.0505356
452,2026-05-11 16:07:28.831068,2.5415506,0.50771254,0.12348281,2.905886,-1.1543826,1.0505356
453,2026-05-11 16:07:28.834140,2.5415506,0.50771254,0.12348281,2.905886,-1.1543826,1.0505356
454,2026-05-11 16:07:28.836926,2.5415506,0.50771254,0.12348281,2.905886,-1.1543826,1.0505356
455,2026-05-11 16:07:28.839488,2.5415506,0.50771254,0.12348281,2.905886,-1.1543826,1.0505356
456,2026-05-11 16:07:28.842251,2.5415506,0.50771254,0.12348281,2.905886,-1.1543826,1.0505356
457,2026-05-11 16:07:28.844850,2.5415506,0.50771254,0.12348281,2.905886,-1.1543826,1.0505356
458,2026-05-11 16:07:28.847400,2.5415506,0.50771254,0.12348281,2.905886,-1.1543826,1.0505356
459,2026-05-11 16:07:28.850534,2.5415506,0.50771254,0.12348281,2.905886,-1.1543826,1.0505356
460,2026-05-11 16:07:28.853185,2.5415506,0.50771254,0.12348281,2.905886,-1.1543826,1.0505356
461,2026-05-11 16:07:28.855800,2.5415506,0.50771254,0.12348281,2.905886,-1.1543826,1.0505356
462,2026-05-11 16:07:28.858508,2.5415506,0.50771254,0.12348281,2.905886,-1.1543826,1.0505356
463,2026-05-11 16:07:28.861214,2.5415506,0.50771254,0.12348281,3.215442,-1.2186762,0.26282477
464,2026-05-11 16:07:28.863848,2.5415506,0.50771254,0.12348281,3.215442,-1.2186762,0.26282477
465,2026-05-11 16:07:28.867135,2.5415506,0.50771254,0.12348281,3.215442,-1.2186762,0.26282477
466,2026-05-11 16:07:28.869998,2.5415506,0.50771254,0.12348281,3.215442,-1.2186762,0.26282477
467,2026-05-11 16:07:28.872584,2.5415506,0.50771254,0.12348281,3.215442,-1.2186762,0.26282477
468,2026-05-11 16:07:28.875209,2.4917917,0.480089,-0.12427554,3.215442,-1.2186762,0.26282477
469,2026-05-11 16:07:28.877825,2.4917917,0.480089,-0.12427554,3.215442,-1.2186762,0.26282477
470,2026-05-11 16:07:28.880362,2.4917917,0.480089,-0.12427554,3.215442,-1.2186762,0.26282477
471,2026-05-11 16:07:28.883108,2.4917917,0.480089,-0.12427554,3.215442,-1.2186762,0.26282477
472,2026-05-11 16:07:28.886190,2.4917917,0.480089,-0.12427554,3.215442,-1.2186762,0.26282477
473,2026-05-11 16:07:28.888917,2.4917917,0.480089,-0.12427554,3.215442,-1.2186762,0.26282477
474,2026-05-11 16:07:28.891579,2.4917917,0.480089,-0.12427554,3.215442,-1.2186762,0.26282477
475,2026-05-11 16:07:28.894329,2.4917917,0.480089,-0.12427554,3.215442,-1.2186762,0.26282477
476,2026-05-11 16:07:28.896918,2.4917917,0.480089,-0.12427554,3.215442,-1.2186762,0.26282477
477,2026-05-11 16:07:28.899751,2.4917917,0.480089,-0.12427554,3.215442,-1.2186762,0.26282477
478,2026-05-11 16:07:28.902874,2.4917917,0.480089,-0.12427554,3.215442,-1.2186762,0.26282477
479,2026-05-11 16:07:28.905723,2.1846397,0.28757775,-0.37026548,3.2769866,-1.3857478,-0.83077675
480,2026-05-11 16:07:28.908359,2.1846397,0.28757775,-0.37026548,3.2769866,-1.3857478,-0.83077675
481,2026-05-11 16:07:28.910943,2.1846397,0.28757775,-0.37026548,3.2769866,-1.3857478,-0.83077675
482,2026-05-11 16:07:28.913783,2.1846397,0.28757775,-0.37026548,3.2769866,-1.3857478,-0.83077675
483,2026-05-11 16:07:28.916795,2.1846397,0.28757775,-0.37026548,3.2769866,-1.3857478,-0.83077675
484,2026-05-11 16:07:28.919745,2.1846397,0.28757775,-0.37026548,3.2769866,-1.3857478,-0.83077675
485,2026-05-11 16:07:28.922318,2.1846397,0.28757775,-0.37026548,3.2769866,-1.3857478,-0.83077675
486,2026-05-11 16:07:28.924931,2.1846397,0.28757775,-0.37026548,3.2769866,-1.3857478,-0.83077675
487,2026-05-11 16:07:28.927537,2.1846397,0.28757775,-0.37026548,3.2769866,-1.3857478,-0.83077675
488,2026-05-11 16:07:28.930150,2.1846397,0.28757775,-0.37026548,3.2769866,-1.3857478,-0.83077675
489,2026-05-11 16:07:28.932680,2.1846397,0.28757775,-0.37026548,3.2769866,-1.3857478,-0.83077675
490,2026-05-11 16:07:28.935884,2.1846397,0.28757775,-0.37026548,3.2769866,-1.3857478,-0.83077675
491,2026-05-11 16:07:28.938653,2.1846397,0.28757775,-0.37026548,3.2769866,-1.3857478,-0.83077675
492,2026-05-11 16:07:28.941310,2.1846397,0.28757775,-0.37026548,3.2769866,-1.3857478,-0.83077675
493,2026-05-11 16:07:28.944009,2.1846397,0.28757775,-0.37026548,3.2769866,-1.3857478,-0.83077675
494,2026-05-11 16:07:28.946827,2.1846397,0.28757775,-0.37026548,3.2769866,-1.3857478,-0.83077675
495,2026-05-11 16:07:28.950118,2.1846397,0.28757775,-0.37026548,3.2769866,-1.3857478,-0.83077675
496,2026-05-11 16:07:28.953038,2.1846397,0.28757775,-0.37026548,3.2769866,-1.3857478,-0.83077675
497,2026-05-11 16:07:28.955749,2.1846397,0.28757775,-0.37026548,3.2769866,-1.3857478,-0.83077675
498,2026-05-11 16:07:28.958422,2.1846397,0.28757775,-0.37026548,3.2769866,-1.3857478,-0.83077675
499,2026-05-11 16:07:28.961209,2.1846397,0.28757775,-0.37026548,3.2769866,-1.3857478,-0.83077675
500,2026-05-11 16:07:28.963957,2.1846397,0.28757775,-0.37026548,3.2769866,-1.3857478,-0.83077675
501,2026-05-11 16:07:28.966992,2.1846397,0.28757775,-0.37026548,3.2769866,-1.3857478,-0.83077675
502,2026-05-11 16:07:28.969766,2.1846397,0.28757775,-0.37026548,3.2769866,-1.3857478,-0.83077675
503,2026-05-11 16:07:28.972367,2.1846397,0.28757775,-0.37026548,3.2769866,-1.3857478,-0.83077675
504,2026-05-11 16:07:28.974976,2.1846397,0.28757775,-0.37026548,3.2769866,-1.3857478,-0.83077675
505,2026-05-11 16:07:28.977920,2.1846397,0.28757775,-0.37026548,3.119078,-1.4286611,-1.3451253
506,2026-05-11 16:07:28.980666,2.1846397,0.28757775,-0.37026548,3.119078,-1.4286611,-1.3451253
507,2026-05-11 16:07:28.983669,1.7695544,0.0056710625,-0.5844243,3.119078,-1.4286611,-1.3451253
508,2026-05-11 16:07:28.986683,1.7695544,0.0056710625,-0.5844243,3.119078,-1.4286611,-1.3451253
509,2026-05-11 16:07:28.989297,1.7695544,0.0056710625,-0.5844243,3.119078,-1.4286611,-1.3451253
510,2026-05-11 16:07:28.992034,1.7695544,0.0056710625,-0.5844243,3.119078,-1.4286611,-1.3451253
511,2026-05-11 16:07:28.994950,1.7695544,0.0056710625,-0.5844243,2.7963884,-1.4210253,-1.7266107
512,2026-05-11 16:07:28.997756,1.7695544,0.0056710625,-0.5844243,2.7963884,-1.4210253,-1.7266107
513,2026-05-11 16:07:29.000779,1.7695544,0.0056710625,-0.5844243,2.7963884,-1.4210253,-1.7266107
514,2026-05-11 16:07:29.003687,1.7695544,0.0056710625,-0.5844243,2.7963884,-1.4210253,-1.7266107
515,2026-05-11 16:07:29.006299,1.7695544,0.0056710625,-0.5844243,2.7963884,-1.4210253,-1.7266107
516,2026-05-11 16:07:29.009098,1.7695544,0.0056710625,-0.5844243,2.7963884,-1.4210253,-1.7266107
517,2026-05-11 16:07:29.011849,1.7695544,0.0056710625,-0.5844243,2.7963884,-1.4210253,-1.7266107
518,2026-05-11 16:07:29.014468,1.7695544,0.0056710625,-0.5844243,2.7963884,-1.4210253,-1.7266107
519,2026-05-11 16:07:29.017687,1.7695544,0.0056710625,-0.5844243,2.7963884,-1.4210253,-1.7266107
520,2026-05-11 16:07:29.020540,1.7695544,0.0056710625,-0.5844243,2.7963884,-1.4210253,-1.7266107
521,2026-05-11 16:07:29.023292,1.7695544,0.0056710625,-0.5844243,2.7963884,-1.4210253,-1.7266107
522,2026-05-11 16:07:29.026023,1.7695544,0.0056710625,-0.5844243,2.7963884,-1.4210253,-1.7266107
523,2026-05-11 16:07:29.028643,1.7695544,0.0056710625,-0.5844243,2.7963884,-1.4210253,-1.7266107
524,2026-05-11 16:07:29.031344,1.7695544,0.0056710625,-0.5844243,2.7963884,-1.4210253,-1.7266107
525,2026-05-11 16:07:29.034437,1.7695544,0.0056710625,-0.5844243,2.7963884,-1.4210253,-1.7266107
526,2026-05-11 16:07:29.037207,1.7695544,0.0056710625,-0.5844243,2.7963884,-1.4210253,-1.7266107
527,2026-05-11 16:07:29.039862,1.7695544,0.0056710625,-0.5844243,2.7963884,-1.4210253,-1.7266107
528,2026-05-11 16:07:29.042738,1.7695544,0.0056710625,-0.5844243,2.7963884,-1.4210253,-1.7266107
529,2026-05-11 16:07:29.045355,1.7695544,0.0056710625,-0.5844243,2.7963884,-1.4210253,-1.7266107
530,2026-05-11 16:07:29.048037,1.7695544,0.0056710625,-0.5844243,2.7963884,-1.4210253,-1.7266107
531,2026-05-11 16:07:29.051145,1.7695544,0.0056710625,-0.5844243,2.7963884,-1.4210253,-1.7266107
532,2026-05-11 16:07:29.053978,1.7695544,0.0056710625,-0.5844243,2.7963884,-1.4210253,-1.7266107
533,2026-05-11 16:07:29.056645,1.7695544,0.0056710625,-0.5844243,2.7963884,-1.4210253,-1.7266107
534,2026-05-11 16:07:29.059403,1.7695544,0.0056710625,-0.5844243,2.7963884,-1.4210253,-1.7266107
535,2026-05-11 16:07:29.062027,1.7695544,0.0056710625,-0.5844243,2.7963884,-1.4210253,-1.7266107
536,2026-05-11 16:07:29.064619,1.7695544,0.0056710625,-0.5844243,2.7963884,-1.4210253,-1.7266107
537,2026-05-11 16:07:29.067523,1.7695544,0.0056710625,-0.5844243,2.7963884,-1.4210253,-1.7266107
538,2026-05-11 16:07:29.070826,1.6702194,-0.08695629,-0.6688195,2.7963884,-1.4210253,-1.7266107
539,2026-05-11 16:07:29.073628,1.6702194,-0.08695629,-0.6688195,2.7963884,-1.4210253,-1.7266107
540,2026-05-11 16:07:29.076253,1.6702194,-0.08695629,-0.6688195,2.7963884,-1.4210253,-1.7266107
541,2026-05-11 16:07:29.078884,1.6702194,-0.08695629,-0.6688195,2.7963884,-1.4210253,-1.7266107
542,2026-05-11 16:07:29.081610,1.6702194,-0.08695629,-0.6688195,2.7963884,-1.4210253,-1.7266107
543,2026-05-11 16:07:29.084646,1.6702194,-0.08695629,-0.6688195,2.7963884,-1.4210253,-1.7266107
544,2026-05-11 16:07:29.087678,1.6702194,-0.08695629,-0.6688195,2.7963884,-1.4210253,-1.7266107
545,2026-05-11 16:07:29.090595,1.5933247,-0.14836231,-0.7496169,2.352442,-1.3553573,-1.9375118
546,2026-05-11 16:07:29.093451,1.5933247,-0.14836231,-0.7496169,2.352442,-1.3553573,-1.9375118
547,2026-05-11 16:07:29.096147,1.5933247,-0.14836231,-0.7496169,2.352442,-1.3553573,-1.9375118
548,2026-05-11 16:07:29.098818,1.5933247,-0.14836231,-0.7496169,2.352442,-1.3553573,-1.9375118
549,2026-05-11 16:07:29.101812,1.5933247,-0.14836231,-0.7496169,2.352442,-1.3553573,-1.9375118
550,2026-05-11 16:07:29.104651,1.5933247,-0.14836231,-0.7496169,2.352442,-1.3553573,-1.9375118
551,2026-05-11 16:07:29.107238,1.5933247,-0.14836231,-0.7496169,2.352442,-1.3553573,-1.9375118
552,2026-05-11 16:07:29.109797,1.5933247,-0.14836231,-0.7496169,2.352442,-1.3553573,-1.9375118
553,2026-05-11 16:07:29.112524,1.5933247,-0.14836231,-0.7496169,2.352442,-1.3553573,-1.9375118
554,2026-05-11 16:07:29.115119,1.5933247,-0.14836231,-0.7496169,2.352442,-1.3553573,-1.9375118
555,2026-05-11 16:07:29.118156,1.5933247,-0.14836231,-0.7496169,2.352442,-1.3553573,-1.9375118
556,2026-05-11 16:07:29.120928,1.5933247,-0.14836231,-0.7496169,2.352442,-1.3553573,-1.9375118
557,2026-05-11 16:07:29.123631,1.5933247,-0.14836231,-0.7496169,2.352442,-1.3553573,-1.9375118
558,2026-05-11 16:07:29.126251,1.5933247,-0.14836231,-0.7496169,2.352442,-1.3553573,-1.9375118
559,2026-05-11 16:07:29.128863,1.5933247,-0.14836231,-0.7496169,2.352442,-1.3553573,-1.9375118
560,2026-05-11 16:07:29.131420,1.5933247,-0.14836231,-0.7496169,2.352442,-1.3553573,-1.9375118
561,2026-05-11 16:07:29.134685,1.5933247,-0.14836231,-0.7496169,2.352442,-1.3553573,-1.9375118
562,2026-05-11 16:07:29.137344,1.5933247,-0.14836231,-0.7496169,2.352442,-1.3553573,-1.9375118
563,2026-05-11 16:07:29.139932,1.5933247,-0.14836231,-0.7496169,2.352442,-1.3553573,-1.9375118
564,2026-05-11 16:07:29.142710,1.5933247,-0.14836231,-0.7496169,2.352442,-1.3553573,-1.9375118
565,2026-05-11 16:07:29.145379,1.5933247,-0.14836231,-0.7496169,2.352442,-1.3553573,-1.9375118
566,2026-05-11 16:07:29.148159,1.5933247,-0.14836231,-0.7496169,2.352442,-1.3553573,-1.9375118
567,2026-05-11 16:07:29.151292,1.5933247,-0.14836231,-0.7496169,2.352442,-1.3553573,-1.9375118
568,2026-05-11 16:07:29.154075,1.5933247,-0.14836231,-0.7496169,2.352442,-1.3553573,-1.9375118
569,2026-05-11 16:07:29.156657,1.5933247,-0.14836231,-0.7496169,2.352442,-1.3553573,-1.9375118
570,2026-05-11 16:07:29.159370,1.5933247,-0.14836231,-0.7496169,2.352442,-1.3553573,-1.9375118
571,2026-05-11 16:07:29.161964,1.5933247,-0.14836231,-0.7496169,2.352442,-1.3553573,-1.9375118
572,2026-05-11 16:07:29.164695,1.5933247,-0.14836231,-0.7496169,2.352442,-1.3553573,-1.9375118
573,2026-05-11 16:07:29.167695,1.5933247,-0.14836231,-0.7496169,2.352442,-1.3553573,-1.9375118
574,2026-05-11 16:07:29.170616,1.5933247,-0.14836231,-0.7496169,2.352442,-1.3553573,-1.9375118
575,2026-05-11 16:07:29.173309,1.5933247,-0.14836231,-0.7496169,0.9963212,-0.66859204,-2.0341814
576,2026-05-11 16:07:29.176141,1.5933247,-0.14836231,-0.7496169,0.9963212,-0.66859204,-2.0341814
577,2026-05-11 16:07:29.178964,1.5933247,-0.14836231,-0.7496169,0.9963212,-0.66859204,-2.0341814
578,2026-05-11 16:07:29.181650,1.5933247,-0.14836231,-0.7496169,0.9963212,-0.66859204,-2.0341814
579,2026-05-11 16:07:29.184923,1.5933247,-0.14836231,-0.7496169,0.9963212,-0.66859204,-2.0341814
580,2026-05-11 16:07:29.187736,1.5933247,-0.14836231,-0.7496169,0.9963212,-0.66859204,-2.0341814
581,2026-05-11 16:07:29.190472,1.5933247,-0.14836231,-0.7496169,0.9963212,-0.66859204,-2.0341814
582,2026-05-11 16:07:29.193100,1.5933247,-0.14836231,-0.7496169,0.9963212,-0.66859204,-2.0341814
583,2026-05-11 16:07:29.195695,1.5933247,-0.14836231,-0.7496169,0.9963212,-0.66859204,-2.0341814
584,2026-05-11 16:07:29.198453,1.4530116,-0.25971028,-0.8249872,0.9963212,-0.66859204,-2.0341814
585,2026-05-11 16:07:29.201559,1.4530116,-0.25971028,-0.8249872,0.9963212,-0.66859204,-2.0341814
586,2026-05-11 16:07:29.204396,1.4530116,-0.25971028,-0.8249872,0.9963212,-0.66859204,-2.0341814
587,2026-05-11 16:07:29.207139,1.4530116,-0.25971028,-0.8249872,0.9963212,-0.66859204,-2.0341814
588,2026-05-11 16:07:29.209949,1.4530116,-0.25971028,-0.8249872,0.9963212,-0.66859204,-2.0341814
589,2026-05-11 16:07:29.212667,1.4530116,-0.25971028,-0.8249872,0.9963212,-0.66859204,-2.0341814
590,2026-05-11 16:07:29.215306,1.4530116,-0.25971028,-0.8249872,0.9963212,-0.66859204,-2.0341814
591,2026-05-11 16:07:29.218331,1.4530116,-0.25971028,-0.8249872,0.9963212,-0.66859204,-2.0341814
592,2026-05-11 16:07:29.221066,1.4530116,-0.25971028,-0.8249872,0.9963212,-0.66859204,-2.0341814
593,2026-05-11 16:07:29.223627,1.4530116,-0.25971028,-0.8249872,0.9963212,-0.66859204,-2.0341814
594,2026-05-11 16:07:29.226156,1.4530116,-0.25971028,-0.8249872,0.9963212,-0.66859204,-2.0341814
595,2026-05-11 16:07:29.228860,1.4530116,-0.25971028,-0.8249872,0.9963212,-0.66859204,-2.0341814
596,2026-05-11 16:07:29.231401,1.4530116,-0.25971028,-0.8249872,0.9963212,-0.66859204,-2.0341814
597,2026-05-11 16:07:29.234429,1.4530116,-0.25971028,-0.8249872,0.9963212,-0.66859204,-2.0341814
598,2026-05-11 16:07:29.237228,1.4530116,-0.25971028,-0.8249872,0.9963212,-0.66859204,-2.0341814
599,2026-05-11 16:07:29.239839,1.4530116,-0.25971028,-0.8249872,0.9963212,-0.66859204,-2.0341814
600,2026-05-11 16:07:29.242613,1.4530116,-0.25971028,-0.8249872,0.9963212,-0.66859204,-2.0341814
601,2026-05-11 16:07:29.245298,1.3382488,-0.2666619,-0.76705694,0.36713,-0.13744467,-1.9408716
602,2026-05-11 16:07:29.248017,1.3382488,-0.2666619,-0.76705694,0.36713,-0.13744467,-1.9408716
603,2026-05-11 16:07:29.250788,1.3382488,-0.2666619,-0.76705694,0.36713,-0.13744467,-1.9408716
604,2026-05-11 16:07:29.254473,1.3382488,-0.2666619,-0.76705694,-0.88346386,0.89629203,-1.6765196
605,2026-05-11 16:07:29.257235,1.3382488,-0.2666619,-0.76705694,-0.88346386,0.89629203,-1.6765196
606,2026-05-11 16:07:29.259828,1.3382488,-0.2666619,-0.76705694,-0.88346386,0.89629203,-1.6765196
607,2026-05-11 16:07:29.262401,1.3382488,-0.2666619,-0.76705694,-0.88346386,0.89629203,-1.6765196
608,2026-05-11 16:07:29.265193,1.3382488,-0.2666619,-0.76705694,-0.88346386,0.89629203,-1.6765196
609,2026-05-11 16:07:29.267911,1.3382488,-0.2666619,-0.76705694,-0.88346386,0.89629203,-1.6765196
610,2026-05-11 16:07:29.271177,1.3382488,-0.2666619,-0.76705694,-0.88346386,0.89629203,-1.6765196
611,2026-05-11 16:07:29.273979,1.3382488,-0.2666619,-0.76705694,-0.88346386,0.89629203,-1.6765196
612,2026-05-11 16:07:29.276571,1.3382488,-0.2666619,-0.76705694,-0.88346386,0.89629203,-1.6765196
613,2026-05-11 16:07:29.279283,1.3382488,-0.2666619,-0.76705694,-0.88346386,0.89629203,-1.6765196
614,2026-05-11 16:07:29.281874,1.3382488,-0.2666619,-0.76705694,-0.88346386,0.89629203,-1.6765196
615,2026-05-11 16:07:29.284743,1.3382488,-0.2666619,-0.76705694,-0.88346386,0.89629203,-1.6765196
616,2026-05-11 16:07:29.287701,1.3382488,-0.2666619,-0.76705694,-0.88346386,0.89629203,-1.6765196
617,2026-05-11 16:07:29.290365,1.3382488,-0.2666619,-0.76705694,-0.88346386,0.89629203,-1.6765196
618,2026-05-11 16:07:29.293105,1.3382488,-0.2666619,-0.76705694,-0.88346386,0.89629203,-1.6765196
619,2026-05-11 16:07:29.295847,1.3382488,-0.2666619,-0.76705694,-0.88346386,0.89629203,-1.6765196
620,2026-05-11 16:07:29.298441,1.3382488,-0.2666619,-0.76705694,-0.88346386,0.89629203,-1.6765196
621,2026-05-11 16:07:29.301543,1.3382488,-0.2666619,-0.76705694,-0.88346386,0.89629203,-1.6765196
622,2026-05-11 16:07:29.304264,1.3382488,-0.2666619,-0.76705694,-0.88346386,0.89629203,-1.6765196
623,2026-05-11 16:07:29.307126,1.3382488,-0.2666619,-0.76705694,-0.88346386,0.89629203,-1.6765196
624,2026-05-11 16:07:29.309837,1.3382488,-0.2666619,-0.76705694,-0.88346386,0.89629203,-1.6765196
625,2026-05-11 16:07:29.312524,1.3931301,-0.17793721,-0.47057623,-0.98944896,1.0100657,-1.6714801
626,2026-05-11 16:07:29.315274,1.3931301,-0.17793721,-0.47057623,-0.98944896,1.0100657,-1.6714801
627,2026-05-11 16:07:29.318308,1.3931301,-0.17793721,-0.47057623,-0.98944896,1.0100657,-1.6714801
628,2026-05-11 16:07:29.321201,1.3931301,-0.17793721,-0.47057623,-0.98944896,1.0100657,-1.6714801
629,2026-05-11 16:07:29.323918,1.3931301,-0.17793721,-0.47057623,-0.98944896,1.0100657,-1.6714801
630,2026-05-11 16:07:29.326600,1.1365297,-0.06543065,-0.30379823,0.0030543262,0.18005253,-1.9321668
631,2026-05-11 16:07:29.329393,1.1365297,-0.06543065,-0.30379823,0.0030543262,0.18005253,-1.9321668
632,2026-05-11 16:07:29.331979,1.1365297,-0.06543065,-0.30379823,0.0030543262,0.18005253,-1.9321668
633,2026-05-11 16:07:29.335134,1.1365297,-0.06543065,-0.30379823,0.0030543262,0.18005253,-1.9321668
634,2026-05-11 16:07:29.337965,1.1365297,-0.06543065,-0.30379823,0.0030543262,0.18005253,-1.9321668
635,2026-05-11 16:07:29.340562,1.1365297,-0.06543065,-0.30379823,0.0030543262,0.18005253,-1.9321668
636,2026-05-11 16:07:29.343203,1.1365297,-0.06543065,-0.30379823,0.0030543262,0.18005253,-1.9321668
637,2026-05-11 16:07:29.345794,1.1365297,-0.06543065,-0.30379823,0.0030543262,0.18005253,-1.9321668
638,2026-05-11 16:07:29.348373,1.1365297,-0.06543065,-0.30379823,0.0030543262,0.18005253,-1.9321668
639,2026-05-11 16:07:29.351510,1.1365297,-0.06543065,-0.30379823,0.0030543262,0.18005253,-1.9321668
640,2026-05-11 16:07:29.354207,1.1365297,-0.06543065,-0.30379823,0.0030543262,0.18005253,-1.9321668
641,2026-05-11 16:07:29.357022,1.1365297,-0.06543065,-0.30379823,0.0030543262,0.18005253,-1.9321668
642,2026-05-11 16:07:29.359651,1.1365297,-0.06543065,-0.30379823,0.0030543262,0.18005253,-1.9321668
643,2026-05-11 16:07:29.362508,1.1365297,-0.06543065,-0.30379823,0.0030543262,0.18005253,-1.9321668
644,2026-05-11 16:07:29.365284,1.1365297,-0.06543065,-0.30379823,0.0030543262,0.18005253,-1.9321668
645,2026-05-11 16:07:29.368492,1.1365297,-0.06543065,-0.30379823,0.0030543262,0.18005253,-1.9321668
646,2026-05-11 16:07:29.371257,1.1365297,-0.06543065,-0.30379823,0.0030543262,0.18005253,-1.9321668
647,2026-05-11 16:07:29.373995,1.1365297,-0.06543065,-0.30379823,0.0030543262,0.18005253,-1.9321668
648,2026-05-11 16:07:29.376612,1.1365297,-0.06543065,-0.30379823,0.0030543262,0.18005253,-1.9321668
649,2026-05-11 16:07:29.379242,1.1365297,-0.06543065,-0.30379823,0.0030543262,0.18005253,-1.9321668
650,2026-05-11 16:07:29.381860,1.1365297,-0.06543065,-0.30379823,0.0030543262,0.18005253,-1.9321668
651,2026-05-11 16:07:29.384923,1.1365297,-0.06543065,-0.30379823,0.0030543262,0.18005253,-1.9321668
652,2026-05-11 16:07:29.387657,1.1365297,-0.06543065,-0.30379823,0.0030543262,0.18005253,-1.9321668
653,2026-05-11 16:07:29.390245,1.1365297,-0.06543065,-0.30379823,0.0030543262,0.18005253,-1.9321668
654,2026-05-11 16:07:29.392808,1.1365297,-0.06543065,-0.30379823,0.0030543262,0.18005253,-1.9321668
655,2026-05-11 16:07:29.395603,1.1365297,-0.06543065,-0.30379823,0.0030543262,0.18005253,-1.9321668
656,2026-05-11 16:07:29.398296,1.1365297,-0.06543065,-0.30379823,0.0030543262,0.18005253,-1.9321668
657,2026-05-11 16:07:29.401335,1.1365297,-0.06543065,-0.30379823,0.0030543262,0.18005253,-1.9321668
658,2026-05-11 16:07:29.404349,1.1365297,-0.06543065,-0.30379823,0.0030543262,0.18005253,-1.9321668
659,2026-05-11 16:07:29.407062,1.1365297,-0.06543065,-0.30379823,0.0030543262,0.18005253,-1.9321668
660,2026-05-11 16:07:29.409662,1.1365297,-0.06543065,-0.30379823,0.0030543262,0.18005253,-1.9321668
661,2026-05-11 16:07:29.412578,1.1365297,-0.06543065,-0.30379823,0.0030543262,0.18005253,-1.9321668
662,2026-05-11 16:07:29.415194,1.1365297,-0.06543065,-0.30379823,0.0030543262,0.18005253,-1.9321668
663,2026-05-11 16:07:29.418376,1.1365297,-0.06543065,-0.30379823,0.0030543262,0.18005253,-1.9321668
664,2026-05-11 16:07:29.421178,0.85328156,0.005854,-0.4425258,0.42210788,-0.33399057,-1.9393444
665,2026-05-11 16:07:29.423989,0.85328156,0.005854,-0.4425258,0.42210788,-0.33399057,-1.9393444
666,2026-05-11 16:07:29.426587,0.85328156,0.005854,-0.4425258,0.42210788,-0.33399057,-1.9393444
667,2026-05-11 16:07:29.429313,0.85328156,0.005854,-0.4425258,0.42210788,-0.33399057,-1.9393444
668,2026-05-11 16:07:29.431918,0.85328156,0.005854,-0.4425258,0.42210788,-0.33399057,-1.9393444
669,2026-05-11 16:07:29.434823,0.85328156,0.005854,-0.4425258,0.42210788,-0.33399057,-1.9393444
670,2026-05-11 16:07:29.437728,0.85328156,0.005854,-0.4425258,0.42210788,-0.33399057,-1.9393444
671,2026-05-11 16:07:29.440358,0.85328156,0.005854,-0.4425258,0.42210788,-0.33399057,-1.9393444
672,2026-05-11 16:07:29.442954,0.85328156,0.005854,-0.4425258,0.42210788,-0.33399057,-1.9393444
673,2026-05-11 16:07:29.445647,0.85328156,0.005854,-0.4425258,0.42210788,-0.33399057,-1.9393444
674,2026-05-11 16:07:29.448265,0.85328156,0.005854,-0.4425258,0.42210788,-0.33399057,-1.9393444
675,2026-05-11 16:07:29.451402,0.85328156,0.005854,-0.4425258,0.42210788,-0.33399057,-1.9393444
676,2026-05-11 16:07:29.454274,0.85328156,0.005854,-0.4425258,0.42210788,-0.33399057,-1.9393444
677,2026-05-11 16:07:29.456996,0.85328156,0.005854,-0.4425258,0.42210788,-0.33399057,-1.9393444
678,2026-05-11 16:07:29.459593,0.85328156,0.005854,-0.4425258,0.42210788,-0.33399057,-1.9393444
679,2026-05-11 16:07:29.462358,0.85328156,0.005854,-0.4425258,0.42210788,-0.33399057,-1.9393444
680,2026-05-11 16:07:29.464924,0.85328156,0.005854,-0.4425258,0.42210788,-0.33399057,-1.9393444
681,2026-05-11 16:07:29.467916,0.85328156,0.005854,-0.4425258,0.42210788,-0.33399057,-1.9393444
682,2026-05-11 16:07:29.470666,0.85328156,0.005854,-0.4425258,0.42210788,-0.33399057,-1.9393444
683,2026-05-11 16:07:29.473243,0.85328156,0.005854,-0.4425258,0.42210788,-0.33399057,-1.9393444
684,2026-05-11 16:07:29.475836,0.85328156,0.005854,-0.4425258,0.42210788,-0.33399057,-1.9393444
685,2026-05-11 16:07:29.478432,0.85328156,0.005854,-0.4425258,0.42210788,-0.33399057,-1.9393444
686,2026-05-11 16:07:29.481018,0.85328156,0.005854,-0.4425258,0.42210788,-0.33399057,-1.9393444
687,2026-05-11 16:07:29.484212,0.85328156,0.005854,-0.4425258,0.42210788,-0.33399057,-1.9393444
688,2026-05-11 16:07:29.487036,0.85328156,0.005854,-0.4425258,0.42210788,-0.33399057,-1.9393444
689,2026-05-11 16:07:29.489743,0.85328156,0.005854,-0.4425258,0.42210788,-0.33399057,-1.9393444
690,2026-05-11 16:07:29.492321,0.85328156,0.005854,-0.4425258,0.42210788,-0.33399057,-1.9393444
691,2026-05-11 16:07:29.495080,0.85328156,0.005854,-0.4425258,0.42210788,-0.33399057,-1.9393444
692,2026-05-11 16:07:29.497675,0.85328156,0.005854,-0.4425258,0.42210788,-0.33399057,-1.9393444
693,2026-05-11 16:07:29.500764,0.85328156,0.005854,-0.4425258,0.42210788,-0.33399057,-1.9393444
694,2026-05-11 16:07:29.503729,0.85328156,0.005854,-0.4425258,0.42210788,-0.33399057,-1.9393444
695,2026-05-11 16:07:29.506566,0.54326344,0.06945527,-0.59887636,0.50533825,-0.5859725,-1.8295414
696,2026-05-11 16:07:29.509194,0.54326344,0.06945527,-0.59887636,0.50533825,-0.5859725,-1.8295414
697,2026-05-11 16:07:29.511991,0.36526522,0.10396948,-0.65503824,0.50533825,-0.5859725,-1.8295414
698,2026-05-11 16:07:29.514610,0.36526522,0.10396948,-0.65503824,0.50533825,-0.5859725,-1.8295414
699,2026-05-11 16:07:29.517725,0.36526522,0.10396948,-0.65503824,0.50533825,-0.5859725,-1.8295414
700,2026-05-11 16:07:29.520524,0.36526522,0.10396948,-0.65503824,0.50533825,-0.5859725,-1.8295414
701,2026-05-11 16:07:29.523330,0.36526522,0.10396948,-0.65503824,0.50533825,-0.5859725,-1.8295414
702,2026-05-11 16:07:29.526229,0.36526522,0.10396948,-0.65503824,0.50533825,-0.5859725,-1.8295414
703,2026-05-11 16:07:29.529238,0.36526522,0.10396948,-0.65503824,0.40958515,-0.7338019,-1.6146696
704,2026-05-11 16:07:29.531956,0.36526522,0.10396948,-0.65503824,0.40958515,-0.7338019,-1.6146696
705,2026-05-11 16:07:29.534918,0.36526522,0.10396948,-0.65503824,0.40958515,-0.7338019,-1.6146696
706,2026-05-11 16:07:29.537810,0.36526522,0.10396948,-0.65503824,0.40958515,-0.7338019,-1.6146696
707,2026-05-11 16:07:29.540406,0.36526522,0.10396948,-0.65503824,0.40958515,-0.7338019,-1.6146696
708,2026-05-11 16:07:29.543060,0.36526522,0.10396948,-0.65503824,0.40958515,-0.7338019,-1.6146696
709,2026-05-11 16:07:29.545932,0.36526522,0.10396948,-0.65503824,0.40958515,-0.7338019,-1.6146696
710,2026-05-11 16:07:29.548588,0.36526522,0.10396948,-0.65503824,0.40958515,-0.7338019,-1.6146696
711,2026-05-11 16:07:29.551585,0.36526522,0.10396948,-0.65503824,0.40958515,-0.7338019,-1.6146696
712,2026-05-11 16:07:29.554423,0.36526522,0.10396948,-0.65503824,0.40958515,-0.7338019,-1.6146696
713,2026-05-11 16:07:29.557293,0.042380523,0.16970502,-0.7281522,0.40958515,-0.7338019,-1.6146696
714,2026-05-11 16:07:29.560187,0.042380523,0.16970502,-0.7281522,0.40958515,-0.7338019,-1.6146696
715,2026-05-11 16:07:29.563028,0.013110521,0.17903483,-0.7341282,0.076358154,-0.8054258,-1.0650436
716,2026-05-11 16:07:29.565828,0.013110521,0.17903483,-0.7341282,0.076358154,-0.8054258,-1.0650436
717,2026-05-11 16:07:29.568795,0.013110521,0.17903483,-0.7341282,0.076358154,-0.8054258,-1.0650436
718,2026-05-11 16:07:29.571502,0.013110521,0.17903483,-0.7341282,0.076358154,-0.8054258,-1.0650436
719,2026-05-11 16:07:29.574217,0.013110521,0.17903483,-0.7341282,0.076358154,-0.8054258,-1.0650436
720,2026-05-11 16:07:29.576865,0.013110521,0.17903483,-0.7341282,0.076358154,-0.8054258,-1.0650436
721,2026-05-11 16:07:29.579512,0.013110521,0.17903483,-0.7341282,0.0041233404,-0.7883216,-0.95249164
722,2026-05-11 16:07:29.582329,0.013110521,0.17903483,-0.7341282,0.0041233404,-0.7883216,-0.95249164
723,2026-05-11 16:07:29.585446,0.013110521,0.17903483,-0.7341282,0.0041233404,-0.7883216,-0.95249164
724,2026-05-11 16:07:29.588271,0.013110521,0.17903483,-0.7341282,0.0041233404,-0.7883216,-0.95249164
725,2026-05-11 16:07:29.591027,0.013110521,0.17903483,-0.7341282,0.0041233404,-0.7883216,-0.95249164
726,2026-05-11 16:07:29.593610,0.013110521,0.17903483,-0.7341282,0.0041233404,-0.7883216,-0.95249164
727,2026-05-11 16:07:29.596306,0.013110521,0.17903483,-0.7341282,0.0041233404,-0.7883216,-0.95249164
728,2026-05-11 16:07:29.598907,0.013110521,0.17903483,-0.7341282,0.0041233404,-0.7883216,-0.95249164
729,2026-05-11 16:07:29.602020,0.013110521,0.17903483,-0.7341282,0.0041233404,-0.7883216,-0.95249164
730,2026-05-11 16:07:29.604802,0.013110521,0.17903483,-0.7341282,0.0041233404,-0.7883216,-0.95249164
731,2026-05-11 16:07:29.607553,0.013110521,0.17903483,-0.7341282,0.0041233404,-0.7883216,-0.95249164
732,2026-05-11 16:07:29.610150,0.013110521,0.17903483,-0.7341282,0.0041233404,-0.7883216,-0.95249164
733,2026-05-11 16:07:29.612862,0.013110521,0.17903483,-0.7341282,0.0041233404,-0.7883216,-0.95249164
734,2026-05-11 16:07:29.615455,0.013110521,0.17903483,-0.7341282,0.0041233404,-0.7883216,-0.95249164
735,2026-05-11 16:07:29.642064,-0.19860914,1.5830191,-0.6635143,-1.5242615,-0.39003745,2.6794076
736,2026-05-11 16:07:29.645726,-0.19860914,1.5830191,-0.6635143,-1.5242615,-0.39003745,2.6794076
737,2026-05-11 16:07:29.654973,-0.19860914,1.5830191,-0.6635143,-1.5242615,-0.39003745,2.6794076
738,2026-05-11 16:07:29.657835,-0.19860914,1.5830191,-0.6635143,-1.5242615,-0.39003745,2.6794076
739,2026-05-11 16:07:29.660581,-0.19860914,1.5830191,-0.6635143,-1.5242615,-0.39003745,2.6794076
740,2026-05-11 16:07:29.663375,-0.19860914,1.5830191,-0.6635143,-1.5242615,-0.39003745,2.6794076
741,2026-05-11 16:07:29.666588,-0.19860914,1.5830191,-0.6635143,-1.5242615,-0.39003745,2.6794076
742,2026-05-11 16:07:29.669415,-0.19860914,1.5830191,-0.6635143,-1.5242615,-0.39003745,2.6794076
743,2026-05-11 16:07:29.672291,-0.19860914,1.5830191,-0.6635143,-1.8293887,-0.14309518,2.7814221
744,2026-05-11 16:07:29.674964,-0.19860914,1.5830191,-0.6635143,-1.8293887,-0.14309518,2.7814221
745,2026-05-11 16:07:29.677580,-0.19860914,1.5830191,-0.6635143,-1.8293887,-0.14309518,2.7814221
746,2026-05-11 16:07:29.680495,-0.19860914,1.5830191,-0.6635143,-1.8293887,-0.14309518,2.7814221
747,2026-05-11 16:07:29.683593,0.14689882,1.7846164,-0.71174884,-1.8293887,-0.14309518,2.7814221
748,2026-05-11 16:07:29.686374,0.14689882,1.7846164,-0.71174884,-1.8293887,-0.14309518,2.7814221
749,2026-05-11 16:07:29.689107,0.14689882,1.7846164,-0.71174884,-2.566703,0.24694228,2.6340508
750,2026-05-11 16:07:29.691704,0.14689882,1.7846164,-0.71174884,-2.566703,0.24694228,2.6340508
751,2026-05-11 16:07:29.694395,0.14689882,1.7846164,-0.71174884,-2.566703,0.24694228,2.6340508
752,2026-05-11 16:07:29.696952,0.14689882,1.7846164,-0.71174884,-2.566703,0.24694228,2.6340508
753,2026-05-11 16:07:29.699728,0.14689882,1.7846164,-0.71174884,-2.566703,0.24694228,2.6340508
754,2026-05-11 16:07:29.702804,0.14689882,1.7846164,-0.71174884,-2.566703,0.24694228,2.6340508
755,2026-05-11 16:07:29.705566,0.14689882,1.7846164,-0.71174884,-2.566703,0.24694228,2.6340508
756,2026-05-11 16:07:29.708143,0.14689882,1.7846164,-0.71174884,-2.566703,0.24694228,2.6340508
757,2026-05-11 16:07:29.710960,0.14689882,1.7846164,-0.71174884,-2.566703,0.24694228,2.6340508
758,2026-05-11 16:07:29.713575,0.14689882,1.7846164,-0.71174884,-2.566703,0.24694228,2.6340508
759,2026-05-11 16:07:29.716276,0.14689882,1.7846164,-0.71174884,-2.566703,0.24694228,2.6340508
760,2026-05-11 16:07:29.719212,0.14689882,1.7846164,-0.71174884,-2.566703,0.24694228,2.6340508
761,2026-05-11 16:07:29.721874,0.14689882,1.7846164,-0.71174884,-2.566703,0.24694228,2.6340508
762,2026-05-11 16:07:29.724778,0.11592139,1.8463272,-0.62015814,-2.9142854,0.38056904,2.4016168
763,2026-05-11 16:07:29.727455,0.11592139,1.8463272,-0.62015814,-2.9142854,0.38056904,2.4016168
764,2026-05-11 16:07:29.730187,0.11592139,1.8463272,-0.62015814,-2.9142854,0.38056904,2.4016168
765,2026-05-11 16:07:29.733365,0.11592139,1.8463272,-0.62015814,-2.9142854,0.38056904,2.4016168
766,2026-05-11 16:07:29.736145,0.11592139,1.8463272,-0.62015814,-2.9142854,0.38056904,2.4016168
767,2026-05-11 16:07:29.738771,0.11592139,1.8463272,-0.62015814,-2.9142854,0.38056904,2.4016168
768,2026-05-11 16:07:29.741580,0.11592139,1.8463272,-0.62015814,-2.9142854,0.38056904,2.4016168
769,2026-05-11 16:07:29.744205,0.11592139,1.8463272,-0.62015814,-2.9142854,0.38056904,2.4016168
770,2026-05-11 16:07:29.747011,0.11592139,1.8463272,-0.62015814,-2.9142854,0.38056904,2.4016168
771,2026-05-11 16:07:29.749757,0.11592139,1.8463272,-0.62015814,-2.9142854,0.38056904,2.4016168
772,2026-05-11 16:07:29.752901,0.11592139,1.8463272,-0.62015814,-2.9142854,0.38056904,2.4016168
773,2026-05-11 16:07:29.755557,0.11592139,1.8463272,-0.62015814,-2.9142854,0.38056904,2.4016168
774,2026-05-11 16:07:29.758164,0.11592139,1.8463272,-0.62015814,-2.9142854,0.38056904,2.4016168
775,2026-05-11 16:07:29.760990,-0.092078544,1.8230941,-0.34843495,-2.9142854,0.38056904,2.4016168
776,2026-05-11 16:07:29.763613,-0.092078544,1.8230941,-0.34843495,-2.9142854,0.38056904,2.4016168
777,2026-05-11 16:07:29.766422,-0.092078544,1.8230941,-0.34843495,-2.9142854,0.38056904,2.4016168
778,2026-05-11 16:07:29.769580,-0.092078544,1.8230941,-0.34843495,-2.9142854,0.38056904,2.4016168
779,2026-05-11 16:07:29.772250,-0.092078544,1.8230941,-0.34843495,-2.9142854,0.38056904,2.4016168
780,2026-05-11 16:07:29.775053,-0.092078544,1.8230941,-0.34843495,-3.0714304,0.59406644,2.2246184
781,2026-05-11 16:07:29.777791,-0.092078544,1.8230941,-0.34843495,-3.0714304,0.59406644,2.2246184
782,2026-05-11 16:07:29.780511,-0.092078544,1.8230941,-0.34843495,-3.0714304,0.59406644,2.2246184
783,2026-05-11 16:07:29.783141,-0.092078544,1.8230941,-0.34843495,-3.0714304,0.59406644,2.2246184
784,2026-05-11 16:07:29.786409,-0.092078544,1.8230941,-0.34843495,-3.0714304,0.59406644,2.2246184
785,2026-05-11 16:07:29.789109,-0.092078544,1.8230941,-0.34843495,-3.0714304,0.59406644,2.2246184
786,2026-05-11 16:07:29.791834,-0.092078544,1.8230941,-0.34843495,-3.0714304,0.59406644,2.2246184
787,2026-05-11 16:07:29.794559,-0.092078544,1.8230941,-0.34843495,-3.0714304,0.59406644,2.2246184
788,2026-05-11 16:07:29.797248,-0.092078544,1.8230941,-0.34843495,-3.0714304,0.59406644,2.2246184
789,2026-05-11 16:07:29.800239,-0.092078544,1.8230941,-0.34843495,-3.0714304,0.59406644,2.2246184
790,2026-05-11 16:07:29.803074,-0.092078544,1.8230941,-0.34843495,-3.0714304,0.59406644,2.2246184
791,2026-05-11 16:07:29.805740,-0.092078544,1.8230941,-0.34843495,-3.0714304,0.59406644,2.2246184
792,2026-05-11 16:07:29.808327,-0.092078544,1.8230941,-0.34843495,-3.0714304,0.59406644,2.2246184
793,2026-05-11 16:07:29.811021,-0.092078544,1.8230941,-0.34843495,-3.0714304,0.59406644,2.2246184
794,2026-05-11 16:07:29.813631,-0.092078544,1.8230941,-0.34843495,-3.0714304,0.59406644,2.2246184
795,2026-05-11 16:07:29.816811,-0.092078544,1.8230941,-0.34843495,-3.0714304,0.59406644,2.2246184
796,2026-05-11 16:07:29.819705,-0.092078544,1.8230941,-0.34843495,-2.8102856,0.6774496,2.1890357
797,2026-05-11 16:07:29.822391,-0.092078544,1.8230941,-0.34843495,-2.8102856,0.6774496,2.1890357
798,2026-05-11 16:07:29.825020,-0.092078544,1.8230941,-0.34843495,-2.8102856,0.6774496,2.1890357
799,2026-05-11 16:07:29.827838,-0.092078544,1.8230941,-0.34843495,-2.8102856,0.6774496,2.1890357
800,2026-05-11 16:07:29.830467,-0.092078544,1.8230941,-0.34843495,-2.8102856,0.6774496,2.1890357
801,2026-05-11 16:07:29.833686,-0.092078544,1.8230941,-0.34843495,-2.8102856,0.6774496,2.1890357
802,2026-05-11 16:07:29.836456,-0.092078544,1.8230941,-0.34843495,-2.8102856,0.6774496,2.1890357
803,2026-05-11 16:07:29.839041,-0.092078544,1.8230941,-0.34843495,-2.8102856,0.6774496,2.1890357
804,2026-05-11 16:07:29.841708,-0.092078544,1.8230941,-0.34843495,-2.8102856,0.6774496,2.1890357
805,2026-05-11 16:07:29.844347,-0.092078544,1.8230941,-0.34843495,-2.8102856,0.6774496,2.1890357
806,2026-05-11 16:07:29.847091,-0.3170307,1.850169,0.08506594,-2.1476495,0.52519137,2.1890357
807,2026-05-11 16:07:29.849707,-0.3170307,1.850169,0.08506594,-2.1476495,0.52519137,2.1890357
808,2026-05-11 16:07:29.852958,-0.3170307,1.850169,0.08506594,-2.1476495,0.52519137,2.1890357
809,2026-05-11 16:07:29.855666,-0.3170307,1.850169,0.08506594,-2.1476495,0.52519137,2.1890357
810,2026-05-11 16:07:29.858261,-0.3170307,1.850169,0.08506594,-2.1476495,0.52519137,2.1890357
811,2026-05-11 16:07:29.860872,-0.3170307,1.850169,0.08506594,-2.1476495,0.52519137,2.1890357
812,2026-05-11 16:07:29.863676,-0.24495333,1.8958422,0.122934,-0.63041294,0.01695151,2.0697641
813,2026-05-11 16:07:29.866380,-0.24495333,1.8958422,0.122934,-0.63041294,0.01695151,2.0697641
814,2026-05-11 16:07:29.869711,-0.24495333,1.8958422,0.122934,-0.63041294,0.01695151,2.0697641
815,2026-05-11 16:07:29.872500,-0.21696389,1.9122456,0.039331563,-0.63041294,0.01695151,2.0697641
816,2026-05-11 16:07:29.875173,-0.21696389,1.9122456,0.039331563,-0.63041294,0.01695151,2.0697641
817,2026-05-11 16:07:29.877759,-0.21696389,1.9122456,0.039331563,-0.63041294,0.01695151,2.0697641
818,2026-05-11 16:07:29.880581,-0.21696389,1.9122456,0.039331563,-0.63041294,0.01695151,2.0697641
819,2026-05-11 16:07:29.883346,-0.21696389,1.9122456,0.039331563,-0.63041294,0.01695151,2.0697641
820,2026-05-11 16:07:29.886661,-0.21696389,1.9122456,0.039331563,-0.63041294,0.01695151,2.0697641
821,2026-05-11 16:07:29.889361,-0.21696389,1.9122456,0.039331563,-0.63041294,0.01695151,2.0697641
822,2026-05-11 16:07:29.892228,-0.21696389,1.9122456,0.039331563,-0.63041294,0.01695151,2.0697641
823,2026-05-11 16:07:29.894900,-0.21696389,1.9122456,0.039331563,-0.63041294,0.01695151,2.0697641
824,2026-05-11 16:07:29.897825,-0.21696389,1.9122456,0.039331563,-0.63041294,0.01695151,2.0697641
825,2026-05-11 16:07:29.901083,-0.21696389,1.9122456,0.039331563,-0.63041294,0.01695151,2.0697641
826,2026-05-11 16:07:29.903968,-0.21696389,1.9122456,0.039331563,-0.63041294,0.01695151,2.0697641
827,2026-05-11 16:07:29.906581,-0.21696389,1.9122456,0.039331563,-0.63041294,0.01695151,2.0697641
828,2026-05-11 16:07:29.909334,-0.21696389,1.9122456,0.039331563,-0.63041294,0.01695151,2.0697641
829,2026-05-11 16:07:29.911995,-0.21696389,1.9122456,0.039331563,0.17486018,-0.19822577,1.9156734
830,2026-05-11 16:07:29.914774,-0.21696389,1.9122456,0.039331563,0.17486018,-0.19822577,1.9156734
831,2026-05-11 16:07:29.917810,-0.21696389,1.9122456,0.039331563,0.17486018,-0.19822577,1.9156734
832,2026-05-11 16:07:29.920589,-0.21696389,1.9122456,0.039331563,0.17486018,-0.19822577,1.9156734
833,2026-05-11 16:07:29.923309,-0.07677277,1.9560287,-0.45947802,0.17486018,-0.19822577,1.9156734
834,2026-05-11 16:07:29.926043,-0.07677277,1.9560287,-0.45947802,0.17486018,-0.19822577,1.9156734
835,2026-05-11 16:07:29.928661,-0.07677277,1.9560287,-0.45947802,0.17486018,-0.19822577,1.9156734
836,2026-05-11 16:07:29.931279,-0.07677277,1.9560287,-0.45947802,0.17486018,-0.19822577,1.9156734
837,2026-05-11 16:07:29.934297,-0.07677277,1.9560287,-0.45947802,0.17486018,-0.19822577,1.9156734
838,2026-05-11 16:07:29.937205,-0.07677277,1.9560287,-0.45947802,0.17486018,-0.19822577,1.9156734
839,2026-05-11 16:07:29.939973,-0.07677277,1.9560287,-0.45947802,1.4146112,-0.36193767,1.4608842
840,2026-05-11 16:07:29.942594,-0.07677277,1.9560287,-0.45947802,1.4146112,-0.36193767,1.4608842
841,2026-05-11 16:07:29.945411,0.0035977708,1.9280393,-0.8127304,1.9370537,-0.08078693,0.9129381
842,2026-05-11 16:07:29.948130,0.0035977708,1.9280393,-0.8127304,1.9370537,-0.08078693,0.9129381
843,2026-05-11 16:07:29.951201,0.0035977708,1.9280393,-0.8127304,1.9370537,-0.08078693,0.9129381
844,2026-05-11 16:07:29.953937,0.0035977708,1.9280393,-0.8127304,1.9370537,-0.08078693,0.9129381
845,2026-05-11 16:07:29.956787,0.0035977708,1.9280393,-0.8127304,1.9370537,-0.08078693,0.9129381
846,2026-05-11 16:07:29.959621,0.0035977708,1.9280393,-0.8127304,2.122146,0.27885997,0.41538838
847,2026-05-11 16:07:29.962383,0.0035977708,1.9280393,-0.8127304,2.122146,0.27885997,0.41538838
848,2026-05-11 16:07:29.965238,0.0035977708,1.9280393,-0.8127304,2.122146,0.27885997,0.41538838
849,2026-05-11 16:07:29.968412,0.0035977708,1.9280393,-0.8127304,2.122146,0.27885997,0.41538838
850,2026-05-11 16:07:29.971214,0.0035977708,1.9280393,-0.8127304,2.122146,0.27885997,0.41538838
851,2026-05-11 16:07:29.973938,0.0035977708,1.9280393,-0.8127304,2.122146,0.27885997,0.41538838
852,2026-05-11 16:07:29.976664,0.0035977708,1.9280393,-0.8127304,2.122146,0.27885997,0.41538838
853,2026-05-11 16:07:29.979272,0.0035977708,1.9280393,-0.8127304,2.122146,0.27885997,0.41538838
854,2026-05-11 16:07:29.981961,0.0035977708,1.9280393,-0.8127304,2.122146,0.27885997,0.41538838
855,2026-05-11 16:07:29.984862,0.0035977708,1.9280393,-0.8127304,2.122146,0.27885997,0.41538838
856,2026-05-11 16:07:29.987866,0.0035977708,1.9280393,-0.8127304,2.122146,0.27885997,0.41538838
857,2026-05-11 16:07:29.990514,0.0035977708,1.9280393,-0.8127304,2.122146,0.27885997,0.41538838
858,2026-05-11 16:07:29.993136,0.0035977708,1.9280393,-0.8127304,2.122146,0.27885997,0.41538838
859,2026-05-11 16:07:29.995811,0.0035977708,1.9280393,-0.8127304,2.122146,0.27885997,0.41538838
860,2026-05-11 16:07:29.998383,0.0035977708,1.9280393,-0.8127304,2.122146,0.27885997,0.41538838
861,2026-05-11 16:07:30.001368,0.0035977708,1.9280393,-0.8127304,2.122146,0.27885997,0.41538838
862,2026-05-11 16:07:30.004023,0.0035977708,1.9280393,-0.8127304,2.122146,0.27885997,0.41538838
863,2026-05-11 16:07:30.006676,0.0035977708,1.9280393,-0.8127304,2.122146,0.27885997,0.41538838
864,2026-05-11 16:07:30.009548,-0.02859923,1.8542545,-1.0296943,2.122146,0.27885997,0.41538838
865,2026-05-11 16:07:30.012229,-0.02859923,1.8542545,-1.0296943,2.122146,0.27885997,0.41538838
866,2026-05-11 16:07:30.014830,-0.02859923,1.8542545,-1.0296943,2.122146,0.27885997,0.41538838
867,2026-05-11 16:07:30.017946,-0.02859923,1.8542545,-1.0296943,2.122146,0.27885997,0.41538838
868,2026-05-11 16:07:30.020742,-0.02859923,1.8542545,-1.0296943,2.122146,0.27885997,0.41538838
869,2026-05-11 16:07:30.023326,-0.02859923,1.8542545,-1.0296943,2.122146,0.27885997,0.41538838
870,2026-05-11 16:07:30.025949,-0.03603869,1.4713663,-1.5297843,2.122146,0.27885997,0.41538838
871,2026-05-11 16:07:30.028740,-0.03603869,1.4713663,-1.5297843,2.122146,0.27885997,0.41538838
872,2026-05-11 16:07:30.031486,-0.03603869,1.4713663,-1.5297843,2.122146,0.27885997,0.41538838
873,2026-05-11 16:07:30.034961,-0.03603869,1.4713663,-1.5297843,2.122146,0.27885997,0.41538838
874,2026-05-11 16:07:30.037914,-0.03603869,1.4713663,-1.5297843,2.122146,0.27885997,0.41538838
875,2026-05-11 16:07:30.040586,-0.03603869,1.4713663,-1.5297843,2.122146,0.27885997,0.41538838
876,2026-05-11 16:07:30.043274,-0.03603869,1.4713663,-1.5297843,2.122146,0.27885997,0.41538838
877,2026-05-11 16:07:30.046010,-0.03603869,1.4713663,-1.5297843,2.122146,0.27885997,0.41538838
878,2026-05-11 16:07:30.048637,-0.03603869,1.4713663,-1.5297843,2.122146,0.27885997,0.41538838
879,2026-05-11 16:07:30.051741,-0.03603869,1.4713663,-1.5297843,2.122146,0.27885997,0.41538838
880,2026-05-11 16:07:30.054543,-0.03603869,1.4713663,-1.5297843,2.122146,0.27885997,0.41538838
881,2026-05-11 16:07:30.057349,-0.03603869,1.4713663,-1.5297843,2.4726298,0.49495357,-1.0083858
882,2026-05-11 16:07:30.060140,-0.03603869,1.4713663,-1.5297843,2.4726298,0.49495357,-1.0083858
883,2026-05-11 16:07:30.062807,-0.03603869,1.4713663,-1.5297843,2.4726298,0.49495357,-1.0083858
884,2026-05-11 16:07:30.065399,-0.03603869,1.4713663,-1.5297843,2.4726298,0.49495357,-1.0083858
885,2026-05-11 16:07:30.068859,0.22580586,1.3441027,-1.6269242,2.4726298,0.49495357,-1.0083858
886,2026-05-11 16:07:30.071511,0.22580586,1.3441027,-1.6269242,2.4726298,0.49495357,-1.0083858
887,2026-05-11 16:07:30.074376,0.22580586,1.3441027,-1.6269242,2.4726298,0.49495357,-1.0083858
888,2026-05-11 16:07:30.077132,0.22580586,1.3441027,-1.6269242,2.4471262,0.020616703,-1.5552629
889,2026-05-11 16:07:30.079764,0.22580586,1.3441027,-1.6269242,2.4471262,0.020616703,-1.5552629
890,2026-05-11 16:07:30.082379,0.22580586,1.3441027,-1.6269242,2.4471262,0.020616703,-1.5552629
891,2026-05-11 16:07:30.085713,0.22580586,1.3441027,-1.6269242,2.4471262,0.020616703,-1.5552629
892,2026-05-11 16:07:30.088320,0.22580586,1.3441027,-1.6269242,2.4471262,0.020616703,-1.5552629
893,2026-05-11 16:07:30.091214,0.22580586,1.3441027,-1.6269242,2.4471262,0.020616703,-1.5552629
894,2026-05-11 16:07:30.093941,0.22580586,1.3441027,-1.6269242,2.4471262,0.020616703,-1.5552629
895,2026-05-11 16:07:30.096581,0.22580586,1.3441027,-1.6269242,2.4471262,0.020616703,-1.5552629
896,2026-05-11 16:07:30.099164,0.22580586,1.3441027,-1.6269242,2.4471262,0.020616703,-1.5552629
897,2026-05-11 16:07:30.102397,0.22580586,1.3441027,-1.6269242,2.4471262,0.020616703,-1.5552629
898,2026-05-11 16:07:30.105216,0.22580586,1.3441027,-1.6269242,2.194228,-0.63529986,-2.632371
899,2026-05-11 16:07:30.107955,0.22580586,1.3441027,-1.6269242,2.194228,-0.63529986,-2.632371
900,2026-05-11 16:07:30.110550,0.22580586,1.3441027,-1.6269242,2.194228,-0.63529986,-2.632371
901,2026-05-11 16:07:30.113175,0.22580586,1.3441027,-1.6269242,2.194228,-0.63529986,-2.632371
902,2026-05-11 16:07:30.115787,0.22580586,1.3441027,-1.6269242,2.194228,-0.63529986,-2.632371
903,2026-05-11 16:07:30.119055,0.22580586,1.3441027,-1.6269242,2.194228,-0.63529986,-2.632371
904,2026-05-11 16:07:30.121966,0.22580586,1.3441027,-1.6269242,2.194228,-0.63529986,-2.632371
905,2026-05-11 16:07:30.124602,0.22580586,1.3441027,-1.6269242,2.194228,-0.63529986,-2.632371
906,2026-05-11 16:07:30.127346,0.22580586,1.3441027,-1.6269242,2.194228,-0.63529986,-2.632371
907,2026-05-11 16:07:30.130090,0.22580586,1.3441027,-1.6269242,2.194228,-0.63529986,-2.632371
908,2026-05-11 16:07:30.132686,0.22580586,1.3441027,-1.6269242,2.194228,-0.63529986,-2.632371
909,2026-05-11 16:07:30.135951,0.22580586,1.3441027,-1.6269242,2.194228,-0.63529986,-2.632371
910,2026-05-11 16:07:30.138897,0.22580586,1.3441027,-1.6269242,2.194228,-0.63529986,-2.632371
911,2026-05-11 16:07:30.141671,0.22580586,1.3441027,-1.6269242,2.194228,-0.63529986,-2.632371
912,2026-05-11 16:07:30.144557,0.22580586,1.3441027,-1.6269242,2.194228,-0.63529986,-2.632371
913,2026-05-11 16:07:30.147342,0.22580586,1.3441027,-1.6269242,2.194228,-0.63529986,-2.632371
914,2026-05-11 16:07:30.150575,0.22580586,1.3441027,-1.6269242,2.194228,-0.63529986,-2.632371
915,2026-05-11 16:07:30.153360,0.22580586,1.3441027,-1.6269242,2.194228,-0.63529986,-2.632371
916,2026-05-11 16:07:30.155990,0.22580586,1.3441027,-1.6269242,2.194228,-0.63529986,-2.632371
917,2026-05-11 16:07:30.158719,0.22580586,1.3441027,-1.6269242,2.194228,-0.63529986,-2.632371
918,2026-05-11 16:07:30.161382,0.28788266,1.1775078,-1.621802,2.4204009,-0.20754147,-1.8347337
919,2026-05-11 16:07:30.164067,0.28788266,1.1775078,-1.621802,2.4204009,-0.20754147,-1.8347337
920,2026-05-11 16:07:30.166905,0.27952853,1.3130034,-1.642352,2.4204009,-0.20754147,-1.8347337
921,2026-05-11 16:07:30.169750,0.27952853,1.3130034,-1.642352,2.4204009,-0.20754147,-1.8347337
922,2026-05-11 16:07:30.172595,0.27952853,1.3130034,-1.642352,2.4204009,-0.20754147,-1.8347337
923,2026-05-11 16:07:30.175226,0.27952853,1.3130034,-1.642352,2.4204009,-0.20754147,-1.8347337
924,2026-05-11 16:07:30.177843,0.27952853,1.3130034,-1.642352,2.4204009,-0.20754147,-1.8347337
925,2026-05-11 16:07:30.180550,0.27952853,1.3130034,-1.642352,2.4204009,-0.20754147,-1.8347337
926,2026-05-11 16:07:30.183241,0.27952853,1.3130034,-1.642352,2.4204009,-0.20754147,-1.8347337
927,2026-05-11 16:07:30.186759,0.27952853,1.3130034,-1.642352,2.4204009,-0.20754147,-1.8347337
928,2026-05-11 16:07:30.189490,0.27952853,1.3130034,-1.642352,2.4204009,-0.20754147,-1.8347337
929,2026-05-11 16:07:30.192134,0.2697718,1.1498841,-1.595154,2.4204009,-0.20754147,-1.8347337
930,2026-05-11 16:07:30.194729,0.2697718,1.1498841,-1.595154,2.4204009,-0.20754147,-1.8347337
931,2026-05-11 16:07:30.197535,0.2697718,1.1498841,-1.595154,2.4204009,-0.20754147,-1.8347337
932,2026-05-11 16:07:30.200295,0.2697718,1.1498841,-1.595154,2.0697641,-0.6805039,-2.9610167
933,2026-05-11 16:07:30.203619,0.2697718,1.1498841,-1.595154,2.0697641,-0.6805039,-2.9610167
934,2026-05-11 16:07:30.206342,0.2697718,1.1498841,-1.595154,2.0697641,-0.6805039,-2.9610167
935,2026-05-11 16:07:30.209287,0.2697718,1.1498841,-1.595154,2.0697641,-0.6805039,-2.9610167
936,2026-05-11 16:07:30.211960,0.2697718,1.1498841,-1.595154,2.0697641,-0.6805039,-2.9610167
937,2026-05-11 16:07:30.214577,0.2697718,1.1498841,-1.595154,2.0697641,-0.6805039,-2.9610167
938,2026-05-11 16:07:30.217682,0.2697718,1.1498841,-1.595154,2.0697641,-0.6805039,-2.9610167
939,2026-05-11 16:07:30.220495,0.2697718,1.1498841,-1.595154,2.0697641,-0.6805039,-2.9610167
940,2026-05-11 16:07:30.223215,0.2697718,1.1498841,-1.595154,2.0697641,-0.6805039,-2.9610167
941,2026-05-11 16:07:30.225878,0.2697718,1.1498841,-1.595154,2.0697641,-0.6805039,-2.9610167
942,2026-05-11 16:07:30.228470,0.2697718,1.1498841,-1.595154,2.0697641,-0.6805039,-2.9610167
943,2026-05-11 16:07:30.231294,0.2697718,1.1498841,-1.595154,2.0697641,-0.6805039,-2.9610167
944,2026-05-11 16:07:30.234293,0.2697718,1.1498841,-1.595154,2.0697641,-0.6805039,-2.9610167
945,2026-05-11 16:07:30.237108,0.2697718,1.1498841,-1.595154,2.0697641,-0.6805039,-2.9610167
946,2026-05-11 16:07:30.239813,0.2697718,1.1498841,-1.595154,2.0697641,-0.6805039,-2.9610167
947,2026-05-11 16:07:30.242470,0.2697718,1.1498841,-1.595154,2.0697641,-0.6805039,-2.9610167
948,2026-05-11 16:07:30.245271,0.2697718,1.1498841,-1.595154,2.0697641,-0.6805039,-2.9610167
949,2026-05-11 16:07:30.247859,0.2697718,1.1498841,-1.595154,2.0697641,-0.6805039,-2.9610167
950,2026-05-11 16:07:30.250833,0.2697718,1.1498841,-1.595154,2.0697641,-0.6805039,-2.9610167
951,2026-05-11 16:07:30.253678,0.2697718,1.1498841,-1.595154,2.0697641,-0.6805039,-2.9610167
952,2026-05-11 16:07:30.256432,0.2697718,1.1498841,-1.595154,1.5861117,-0.70280045,-3.4767396
953,2026-05-11 16:07:30.259272,0.07030898,1.0759164,-1.43112,1.5861117,-0.70280045,-3.4767396
954,2026-05-11 16:07:30.261988,0.07030898,1.0759164,-1.43112,1.5861117,-0.70280045,-3.4767396
955,2026-05-11 16:07:30.264745,-0.112567544,0.9976802,-1.2319622,1.5861117,-0.70280045,-3.4767396
956,2026-05-11 16:07:30.267948,-0.112567544,0.9976802,-1.2319622,1.5861117,-0.70280045,-3.4767396
957,2026-05-11 16:07:30.270748,-0.112567544,0.9976802,-1.2319622,1.5861117,-0.70280045,-3.4767396
958,2026-05-11 16:07:30.273408,-0.112567544,0.9976802,-1.2319622,1.5861117,-0.70280045,-3.4767396
959,2026-05-11 16:07:30.276147,-0.112567544,0.9976802,-1.2319622,1.5861117,-0.70280045,-3.4767396
960,2026-05-11 16:07:30.278871,-0.112567544,0.9976802,-1.2319622,1.5861117,-0.70280045,-3.4767396
961,2026-05-11 16:07:30.281651,-0.112567544,0.9976802,-1.2319622,1.21608,-0.8040514,-3.682143
962,2026-05-11 16:07:30.284660,-0.112567544,0.9976802,-1.2319622,1.21608,-0.8040514,-3.682143
963,2026-05-11 16:07:30.287501,-0.21403688,0.960117,-1.0357312,1.21608,-0.8040514,-3.682143
964,2026-05-11 16:07:30.290141,-0.21403688,0.960117,-1.0357312,1.21608,-0.8040514,-3.682143
965,2026-05-11 16:07:30.293015,-0.21403688,0.960117,-1.0357312,1.21608,-0.8040514,-3.682143
966,2026-05-11 16:07:30.295724,-0.21403688,0.960117,-1.0357312,1.21608,-0.8040514,-3.682143
967,2026-05-11 16:07:30.298401,-0.21403688,0.960117,-1.0357312,1.21608,-0.8040514,-3.682143
968,2026-05-11 16:07:30.301631,-0.21403688,0.960117,-1.0357312,1.21608,-0.8040514,-3.682143
969,2026-05-11 16:07:30.304438,-0.21403688,0.960117,-1.0357312,1.21608,-0.8040514,-3.682143
970,2026-05-11 16:07:30.307152,-0.21403688,0.960117,-1.0357312,1.21608,-0.8040514,-3.682143
971,2026-05-11 16:07:30.309831,-0.32276276,0.91663885,-0.8323047,1.21608,-0.8040514,-3.682143
972,2026-05-11 16:07:30.312405,-0.32276276,0.91663885,-0.8323047,1.21608,-0.8040514,-3.682143
973,2026-05-11 16:07:30.315021,-0.32276276,0.91663885,-0.8323047,1.21608,-0.8040514,-3.682143
974,2026-05-11 16:07:30.318003,-0.4265493,0.84297603,-0.69125986,1.2423472,-0.9036224,-3.6771033
975,2026-05-11 16:07:30.320684,-0.4265493,0.84297603,-0.69125986,1.2423472,-0.9036224,-3.6771033
976,2026-05-11 16:07:30.323508,-0.4265493,0.84297603,-0.69125986,1.3307699,-0.9830349,-3.58303
977,2026-05-11 16:07:30.326323,-0.4265493,0.84297603,-0.69125986,1.3307699,-0.9830349,-3.58303
978,2026-05-11 16:07:30.329023,-0.4265493,0.84297603,-0.69125986,1.3307699,-0.9830349,-3.58303
979,2026-05-11 16:07:30.331602,-0.4265493,0.84297603,-0.69125986,1.3307699,-0.9830349,-3.58303
980,2026-05-11 16:07:30.334741,-0.4265493,0.84297603,-0.69125986,1.3307699,-0.9830349,-3.58303
981,2026-05-11 16:07:30.337572,-0.4265493,0.84297603,-0.69125986,1.3307699,-0.9830349,-3.58303
982,2026-05-11 16:07:30.340246,-0.4265493,0.84297603,-0.69125986,1.3307699,-0.9830349,-3.58303
983,2026-05-11 16:07:30.343179,-0.4265493,0.84297603,-0.69125986,1.3307699,-0.9830349,-3.58303
984,2026-05-11 16:07:30.345928,-0.4265493,0.84297603,-0.69125986,1.3307699,-0.9830349,-3.58303
985,2026-05-11 16:07:30.348535,-0.4265493,0.84297603,-0.69125986,1.3307699,-0.9830349,-3.58303
986,2026-05-11 16:07:30.352056,-0.547349,0.7936439,-0.5462514,1.3307699,-0.9830349,-3.58303
987,2026-05-11 16:07:30.355013,-0.547349,0.7936439,-0.5462514,1.3307699,-0.9830349,-3.58303
988,2026-05-11 16:07:30.357704,-0.547349,0.7936439,-0.5462514,1.3307699,-0.9830349,-3.58303
989,2026-05-11 16:07:30.360442,-0.547349,0.7936439,-0.5462514,1.5234979,-1.0070114,-3.4271069
990,2026-05-11 16:07:30.363172,-0.547349,0.7936439,-0.5462514,1.5234979,-1.0070114,-3.4271069
991,2026-05-11 16:07:30.365780,-0.547349,0.7936439,-0.5462514,1.5234979,-1.0070114,-3.4271069
992,2026-05-11 16:07:30.368862,-0.547349,0.7936439,-0.5462514,1.5234979,-1.0070114,-3.4271069
993,2026-05-11 16:07:30.371875,-0.547349,0.7936439,-0.5462514,1.5234979,-1.0070114,-3.4271069
994,2026-05-11 16:07:30.374567,-0.547349,0.7936439,-0.5462514,1.5234979,-1.0070114,-3.4271069
995,2026-05-11 16:07:30.377214,-0.547349,0.7936439,-0.5462514,1.5234979,-1.0070114,-3.4271069
996,2026-05-11 16:07:30.379914,-0.547349,0.7936439,-0.5462514,1.5234979,-1.0070114,-3.4271069
997,2026-05-11 16:07:30.382540,-0.547349,0.7936439,-0.5462514,1.5234979,-1.0070114,-3.4271069
998,2026-05-11 16:07:30.385623,-0.547349,0.7936439,-0.5462514,1.5234979,-1.0070114,-3.4271069
999,2026-05-11 16:07:30.388262,-0.547349,0.7936439,-0.5462514,1.5234979,-1.0070114,-3.4271069
1000,2026-05-11 16:07:30.390819,-0.547349,0.7936439,-0.5462514,1.5234979,-1.0070114,-3.4271069
1001,2026-05-11 16:07:30.393465,-0.547349,0.7936439,-0.5462514,1.5234979,-1.0070114,-3.4271069
1002,2026-05-11 16:07:30.396053,-0.547349,0.7936439,-0.5462514,1.5234979,-1.0070114,-3.4271069
1003,2026-05-11 16:07:30.398697,-0.547349,0.7936439,-0.5462514,1.5234979,-1.0070114,-3.4271069
1004,2026-05-11 16:07:30.401757,-0.547349,0.7936439,-0.5462514,1.5234979,-1.0070114,-3.4271069
1005,2026-05-11 16:07:30.404616,-0.547349,0.7936439,-0.5462514,1.5234979,-1.0070114,-3.4271069
1006,2026-05-11 16:07:30.407260,-0.547349,0.7936439,-0.5462514,1.5234979,-1.0070114,-3.4271069
1007,2026-05-11 16:07:30.409856,-0.547349,0.7936439,-0.5462514,1.5234979,-1.0070114,-3.4271069
1008,2026-05-11 16:07:30.412546,-0.547349,0.7936439,-0.5462514,1.5234979,-1.0070114,-3.4271069
1009,2026-05-11 16:07:30.415149,-0.547349,0.7936439,-0.5462514,1.5234979,-1.0070114,-3.4271069
1010,2026-05-11 16:07:30.418638,-0.547349,0.7936439,-0.5462514,1.5234979,-1.0070114,-3.4271069
1011,2026-05-11 16:07:30.421504,-0.547349,0.7936439,-0.5462514,1.5234979,-1.0070114,-3.4271069
1012,2026-05-11 16:07:30.424206,-0.547349,0.7936439,-0.5462514,1.5234979,-1.0070114,-3.4271069
1013,2026-05-11 16:07:30.426843,-0.547349,0.7936439,-0.5462514,1.5234979,-1.0070114,-3.4271069
1014,2026-05-11 16:07:30.429707,-0.547349,0.7936439,-0.5462514,1.5234979,-1.0070114,-3.4271069
1015,2026-05-11 16:07:30.432324,-0.547349,0.7936439,-0.5462514,1.5234979,-1.0070114,-3.4271069
1016,2026-05-11 16:07:30.435409,-0.547349,0.7936439,-0.5462514,1.5234979,-1.0070114,-3.4271069
1017,2026-05-11 16:07:30.438250,-0.547349,0.7936439,-0.5462514,1.5234979,-1.0070114,-3.4271069
1018,2026-05-11 16:07:30.441023,-0.547349,0.7936439,-0.5462514,1.5234979,-1.0070114,-3.4271069
1019,2026-05-11 16:07:30.443818,-0.626378,0.8513911,-0.35166687,2.066099,-0.9460775,-2.8976393
1020,2026-05-11 16:07:30.446523,-0.626378,0.8513911,-0.35166687,2.066099,-0.9460775,-2.8976393
1021,2026-05-11 16:07:30.449332,-0.6566237,0.91468745,-0.3881324,2.7348437,-1.1498011,-2.382069
1022,2026-05-11 16:07:30.452478,-0.5383241,0.87749016,-0.47106406,2.9152017,-1.1626292,-2.2188153
1023,2026-05-11 16:07:30.455378,-0.5383241,0.87749016,-0.47106406,2.9152017,-1.1626292,-2.2188153
1024,2026-05-11 16:07:30.458200,-0.5383241,0.87749016,-0.47106406,2.9741502,-1.2505939,-2.221106
1025,2026-05-11 16:07:30.460810,-0.5383241,0.87749016,-0.47106406,2.9741502,-1.2505939,-2.221106
1026,2026-05-11 16:07:30.463735,-0.3031884,0.83815867,-0.6279634,2.9741502,-1.2505939,-2.221106
1027,2026-05-11 16:07:30.466622,-0.14421573,0.7752892,-0.79108274,2.8774807,-1.2614367,-2.417652
1028,2026-05-11 16:07:30.469745,-0.14421573,0.7752892,-0.79108274,2.8774807,-1.2614367,-2.417652
1029,2026-05-11 16:07:30.472366,-0.14421573,0.7752892,-0.79108274,2.8774807,-1.2614367,-2.417652
1030,2026-05-11 16:07:30.475180,-0.14421573,0.7752892,-0.79108274,2.8774807,-1.2614367,-2.417652
1031,2026-05-11 16:07:30.478060,-0.14421573,0.7752892,-0.79108274,2.3813055,-1.1099422,-2.7582092
1032,2026-05-11 16:07:30.480677,-0.14421573,0.7752892,-0.79108274,2.3813055,-1.1099422,-2.7582092
1033,2026-05-11 16:07:30.483315,-0.14421573,0.7752892,-0.79108274,2.3813055,-1.1099422,-2.7582092
1034,2026-05-11 16:07:30.486693,-0.27434528,0.64753777,-1.0485368,2.3813055,-1.1099422,-2.7582092
1035,2026-05-11 16:07:30.489334,-0.27434528,0.64753777,-1.0485368,2.3813055,-1.1099422,-2.7582092
1036,2026-05-11 16:07:30.491953,-0.27434528,0.64753777,-1.0485368,2.3813055,-1.1099422,-2.7582092
1037,2026-05-11 16:07:30.494571,-0.27434528,0.64753777,-1.0485368,2.3813055,-1.1099422,-2.7582092
1038,2026-05-11 16:07:30.497327,-0.27434528,0.64753777,-1.0485368,2.3813055,-1.1099422,-2.7582092
1039,2026-05-11 16:07:30.499969,-0.27434528,0.64753777,-1.0485368,2.3813055,-1.1099422,-2.7582092
1040,2026-05-11 16:07:30.503222,-0.27434528,0.64753777,-1.0485368,2.3813055,-1.1099422,-2.7582092
1041,2026-05-11 16:07:30.505876,-0.27434528,0.64753777,-1.0485368,2.3813055,-1.1099422,-2.7582092
1042,2026-05-11 16:07:30.508460,-0.27434528,0.64753777,-1.0485368,2.3813055,-1.1099422,-2.7582092
1043,2026-05-11 16:07:30.511311,-0.27434528,0.64753777,-1.0485368,2.3813055,-1.1099422,-2.7582092
1044,2026-05-11 16:07:30.513926,-0.27434528,0.64753777,-1.0485368,2.3813055,-1.1099422,-2.7582092
1045,2026-05-11 16:07:30.516845,-0.27434528,0.64753777,-1.0485368,2.3813055,-1.1099422,-2.7582092
1046,2026-05-11 16:07:30.519629,-0.27434528,0.64753777,-1.0485368,2.3813055,-1.1099422,-2.7582092
1047,2026-05-11 16:07:30.522229,-0.27434528,0.64753777,-1.0485368,2.3813055,-1.1099422,-2.7582092
1048,2026-05-11 16:07:30.524819,-0.27434528,0.64753777,-1.0485368,2.3813055,-1.1099422,-2.7582092
1049,2026-05-11 16:07:30.527551,-0.27434528,0.64753777,-1.0485368,2.3813055,-1.1099422,-2.7582092
1050,2026-05-11 16:07:30.530404,-0.27434528,0.64753777,-1.0485368,1.9521726,-0.9056077,-2.7638597
1051,2026-05-11 16:07:30.533131,-0.27434528,0.64753777,-1.0485368,1.9521726,-0.9056077,-2.7638597
1052,2026-05-11 16:07:30.536257,-0.41514617,0.5787533,-1.1251876,1.9521726,-0.9056077,-2.7638597
1053,2026-05-11 16:07:30.538944,-0.41514617,0.5787533,-1.1251876,1.9521726,-0.9056077,-2.7638597
1054,2026-05-11 16:07:30.541525,-0.41514617,0.5787533,-1.1251876,1.9521726,-0.9056077,-2.7638597
1055,2026-05-11 16:07:30.544334,-0.41514617,0.5787533,-1.1251876,1.9521726,-0.9056077,-2.7638597
1056,2026-05-11 16:07:30.547112,-0.41514617,0.5787533,-1.1251876,1.9521726,-0.9056077,-2.7638597
1057,2026-05-11 16:07:30.549943,-0.9332252,0.39477912,-0.7241276,0.5141958,-0.23747386,-1.5490016
1058,2026-05-11 16:07:30.552982,-0.9332252,0.39477912,-0.7241276,0.5141958,-0.23747386,-1.5490016
1059,2026-05-11 16:07:30.555597,-0.9332252,0.39477912,-0.7241276,0.5141958,-0.23747386,-1.5490016
1060,2026-05-11 16:07:30.558326,-0.9332252,0.39477912,-0.7241276,0.5141958,-0.23747386,-1.5490016
1061,2026-05-11 16:07:30.560991,-0.9332252,0.39477912,-0.7241276,0.58062744,-0.3576616,-0.75396043
1062,2026-05-11 16:07:30.563743,-0.9332252,0.39477912,-0.7241276,0.58062744,-0.3576616,-0.75396043
1063,2026-05-11 16:07:30.566374,-0.9332252,0.39477912,-0.7241276,0.58062744,-0.3576616,-0.75396043
1064,2026-05-11 16:07:30.569642,-0.9472504,0.3017249,-0.3242872,0.58062744,-0.3576616,-0.75396043
1065,2026-05-11 16:07:30.572404,-0.9472504,0.3017249,-0.3242872,0.58062744,-0.3576616,-0.75396043
1066,2026-05-11 16:07:30.575232,-0.9472504,0.3017249,-0.3242872,0.58062744,-0.3576616,-0.75396043
1067,2026-05-11 16:07:30.577963,-0.9472504,0.3017249,-0.3242872,0.58062744,-0.3576616,-0.75396043
1068,2026-05-11 16:07:30.580727,-0.9472504,0.3017249,-0.3242872,0.58062744,-0.3576616,-0.75396043
1069,2026-05-11 16:07:30.583833,-0.9472504,0.3017249,-0.3242872,0.58062744,-0.3576616,-0.75396043
1070,2026-05-11 16:07:30.586653,-0.9472504,0.3017249,-0.3242872,0.58062744,-0.3576616,-0.75396043
1071,2026-05-11 16:07:30.589406,-0.9472504,0.3017249,-0.3242872,0.58062744,-0.3576616,-0.75396043
1072,2026-05-11 16:07:30.592137,-0.9472504,0.3017249,-0.3242872,0.58062744,-0.3576616,-0.75396043
1073,2026-05-11 16:07:30.594874,-0.9472504,0.3017249,-0.3242872,0.58062744,-0.3576616,-0.75396043
1074,2026-05-11 16:07:30.597545,-0.9472504,0.3017249,-0.3242872,0.58062744,-0.3576616,-0.75396043
1075,2026-05-11 16:07:30.600675,-0.9472504,0.3017249,-0.3242872,0.58062744,-0.3576616,-0.75396043
1076,2026-05-11 16:07:30.603459,-0.9472504,0.3017249,-0.3242872,0.58062744,-0.3576616,-0.75396043
1077,2026-05-11 16:07:30.606048,-0.9472504,0.3017249,-0.3242872,0.58062744,-0.3576616,-0.75396043
1078,2026-05-11 16:07:30.608738,-0.9472504,0.3017249,-0.3242872,0.58062744,-0.3576616,-0.75396043
1079,2026-05-11 16:07:30.611339,-0.9472504,0.3017249,-0.3242872,0.58062744,-0.3576616,-0.75396043
1080,2026-05-11 16:07:30.614225,-0.9472504,0.3017249,-0.3242872,0.58062744,-0.3576616,-0.75396043
1081,2026-05-11 16:07:30.617269,-0.9472504,0.3017249,-0.3242872,0.58062744,-0.3576616,-0.75396043
1082,2026-05-11 16:07:30.620207,-0.9472504,0.3017249,-0.3242872,0.58062744,-0.3576616,-0.75396043
1083,2026-05-11 16:07:30.622956,-0.772606,0.17061971,-0.064394,1.2017246,-0.6239988,0.32650748
1084,2026-05-11 16:07:30.625540,-0.772606,0.17061971,-0.064394,1.2017246,-0.6239988,0.32650748
1085,2026-05-11 16:07:30.628401,-0.772606,0.17061971,-0.064394,1.2017246,-0.6239988,0.32650748
1086,2026-05-11 16:07:30.631024,-0.772606,0.17061971,-0.064394,1.2017246,-0.6239988,0.32650748
1087,2026-05-11 16:07:30.634034,-0.772606,0.17061971,-0.064394,1.2017246,-0.6239988,0.32650748
1088,2026-05-11 16:07:30.636928,-0.772606,0.17061971,-0.064394,1.2017246,-0.6239988,0.32650748
1089,2026-05-11 16:07:30.639643,-0.772606,0.17061971,-0.064394,1.2017246,-0.6239988,0.32650748
1090,2026-05-11 16:07:30.642426,-0.772606,0.17061971,-0.064394,1.2017246,-0.6239988,0.32650748
1091,2026-05-11 16:07:30.645176,-0.772606,0.17061971,-0.064394,1.2017246,-0.6239988,0.32650748
1092,2026-05-11 16:07:30.648029,-0.772606,0.17061971,-0.064394,1.2017246,-0.6239988,0.32650748
1093,2026-05-11 16:07:30.651306,-0.772606,0.17061971,-0.064394,1.585348,-0.68416905,0.8344419
1094,2026-05-11 16:07:30.654111,-0.772606,0.17061971,-0.064394,1.585348,-0.68416905,0.8344419
1095,2026-05-11 16:07:30.656704,-0.772606,0.17061971,-0.064394,1.585348,-0.68416905,0.8344419
1096,2026-05-11 16:07:30.659493,-0.772606,0.17061971,-0.064394,1.585348,-0.68416905,0.8344419
1097,2026-05-11 16:07:30.662406,-0.7238227,0.12933682,-0.032197,2.2892175,-0.70249504,1.7878499
1098,2026-05-11 16:07:30.665194,-0.3875226,-0.011829958,-0.0453685,2.2892175,-0.70249504,1.7878499
1099,2026-05-11 16:07:30.668106,-0.3875226,-0.011829958,-0.0453685,2.2892175,-0.70249504,1.7878499
1100,2026-05-11 16:07:30.670820,-0.3875226,-0.011829958,-0.0453685,2.2892175,-0.70249504,1.7878499
1101,2026-05-11 16:07:30.673429,-0.3875226,-0.011829958,-0.0453685,2.2892175,-0.70249504,1.7878499
1102,2026-05-11 16:07:30.676284,-0.3875226,-0.011829958,-0.0453685,2.2892175,-0.70249504,1.7878499
1103,2026-05-11 16:07:30.678946,-0.3875226,-0.011829958,-0.0453685,2.2892175,-0.70249504,1.7878499
1104,2026-05-11 16:07:30.681530,-0.3875226,-0.011829958,-0.0453685,2.2892175,-0.70249504,1.7878499
1105,2026-05-11 16:07:30.684564,-0.3875226,-0.011829958,-0.0453685,2.2892175,-0.70249504,1.7878499
1106,2026-05-11 16:07:30.687338,-0.3875226,-0.011829958,-0.0453685,2.2892175,-0.70249504,1.7878499
1107,2026-05-11 16:07:30.714335,1.8605963,-0.47716197,-1.0352434,1.2652546,0.9213375,3.6879463
1108,2026-05-11 16:07:30.718032,1.8605963,-0.47716197,-1.0352434,1.2652546,0.9213375,3.6879463
1109,2026-05-11 16:07:30.726610,1.8605963,-0.47716197,-1.0352434,0.8472701,0.86742866,3.794542
1110,2026-05-11 16:07:30.729389,1.8605963,-0.47716197,-1.0352434,0.8472701,0.86742866,3.794542
1111,2026-05-11 16:07:30.732103,1.8605963,-0.47716197,-1.0352434,0.8472701,0.86742866,3.794542
1112,2026-05-11 16:07:30.735226,1.8605963,-0.47716197,-1.0352434,0.8472701,0.86742866,3.794542
1113,2026-05-11 16:07:30.738017,1.8605963,-0.47716197,-1.0352434,0.8472701,0.86742866,3.794542
1114,2026-05-11 16:07:30.740795,1.8605963,-0.47716197,-1.0352434,0.8472701,0.86742866,3.794542
1115,2026-05-11 16:07:30.743610,1.8605963,-0.47716197,-1.0352434,0.8472701,0.86742866,3.794542
1116,2026-05-11 16:07:30.746276,1.8605963,-0.47716197,-1.0352434,0.8472701,0.86742866,3.794542
1117,2026-05-11 16:07:30.748938,1.8605963,-0.47716197,-1.0352434,0.8472701,0.86742866,3.794542
1118,2026-05-11 16:07:30.751880,1.8605963,-0.47716197,-1.0352434,0.8472701,0.86742866,3.794542
1119,2026-05-11 16:07:30.754692,2.0802433,-0.34349567,-1.097808,0.28313604,0.96837413,3.7319286
1120,2026-05-11 16:07:30.757325,2.0802433,-0.34349567,-1.097808,0.28313604,0.96837413,3.7319286
1121,2026-05-11 16:07:30.759922,2.0802433,-0.34349567,-1.097808,0.28313604,0.96837413,3.7319286
1122,2026-05-11 16:07:30.762563,2.2172635,-0.17543708,-1.0841485,0.28313604,0.96837413,3.7319286
1123,2026-05-11 16:07:30.765263,2.2172635,-0.17543708,-1.0841485,-0.33857206,1.2447907,3.4733799
1124,2026-05-11 16:07:30.768322,2.2172635,-0.17543708,-1.0841485,-0.33857206,1.2447907,3.4733799
1125,2026-05-11 16:07:30.771194,2.2172635,-0.17543708,-1.0841485,-0.33857206,1.2447907,3.4733799
1126,2026-05-11 16:07:30.774035,2.2172635,-0.17543708,-1.0841485,-0.33857206,1.2447907,3.4733799
1127,2026-05-11 16:07:30.776762,2.2172635,-0.17543708,-1.0841485,-0.33857206,1.2447907,3.4733799
1128,2026-05-11 16:07:30.779453,2.2172635,-0.17543708,-1.0841485,-0.33857206,1.2447907,3.4733799
1129,2026-05-11 16:07:30.782040,2.2172635,-0.17543708,-1.0841485,-0.33857206,1.2447907,3.4733799
1130,2026-05-11 16:07:30.785417,2.2172635,-0.17543708,-1.0841485,-0.33857206,1.2447907,3.4733799
1131,2026-05-11 16:07:30.788296,2.277938,0.05640573,-0.99511904,-0.33857206,1.2447907,3.4733799
1132,2026-05-11 16:07:30.791011,2.277938,0.05640573,-0.99511904,-0.33857206,1.2447907,3.4733799
1133,2026-05-11 16:07:30.793635,2.277938,0.05640573,-0.99511904,-0.33857206,1.2447907,3.4733799
1134,2026-05-11 16:07:30.796329,2.277938,0.05640573,-0.99511904,-0.33857206,1.2447907,3.4733799
1135,2026-05-11 16:07:30.799193,2.277938,0.05640573,-0.99511904,-1.5315919,1.912161,2.4468207
1136,2026-05-11 16:07:30.802382,2.2778158,0.104945146,-0.96578807,-1.5315919,1.912161,2.4468207
1137,2026-05-11 16:07:30.805042,2.2778158,0.104945146,-0.96578807,-1.5315919,1.912161,2.4468207
1138,2026-05-11 16:07:30.807796,2.2778158,0.104945146,-0.96578807,-1.5315919,1.912161,2.4468207
1139,2026-05-11 16:07:30.810437,2.2778158,0.104945146,-0.96578807,-1.5315919,1.912161,2.4468207
1140,2026-05-11 16:07:30.813019,2.2778158,0.104945146,-0.96578807,-1.5315919,1.912161,2.4468207
1141,2026-05-11 16:07:30.815557,2.2778158,0.104945146,-0.96578807,-1.5315919,1.912161,2.4468207
1142,2026-05-11 16:07:30.818695,2.2778158,0.104945146,-0.96578807,-1.5315919,1.912161,2.4468207
1143,2026-05-11 16:07:30.821466,2.2778158,0.104945146,-0.96578807,-1.5315919,1.912161,2.4468207
1144,2026-05-11 16:07:30.824220,2.2778158,0.104945146,-0.96578807,-1.5315919,1.912161,2.4468207
1145,2026-05-11 16:07:30.826881,2.2778158,0.104945146,-0.96578807,-1.5315919,1.912161,2.4468207
1146,2026-05-11 16:07:30.829464,2.2778158,0.104945146,-0.96578807,-1.5315919,1.912161,2.4468207
1147,2026-05-11 16:07:30.832158,2.2778158,0.104945146,-0.96578807,-1.5315919,1.912161,2.4468207
1148,2026-05-11 16:07:30.835147,2.2778158,0.104945146,-0.96578807,-1.5315919,1.912161,2.4468207
1149,2026-05-11 16:07:30.837822,2.2778158,0.104945146,-0.96578807,-1.5315919,1.912161,2.4468207
1150,2026-05-11 16:07:30.840593,2.2778158,0.104945146,-0.96578807,-1.5315919,1.912161,2.4468207
1151,2026-05-11 16:07:30.843211,2.2778158,0.104945146,-0.96578807,-1.5315919,1.912161,2.4468207
1152,2026-05-11 16:07:30.846079,2.2778158,0.104945146,-0.96578807,-1.5315919,1.912161,2.4468207
1153,2026-05-11 16:07:30.848793,2.2778158,0.104945146,-0.96578807,-1.5315919,1.912161,2.4468207
1154,2026-05-11 16:07:30.851746,2.2778158,0.104945146,-0.96578807,-1.5315919,1.912161,2.4468207
1155,2026-05-11 16:07:30.854557,2.139332,0.25745404,-0.8325486,-2.0158553,2.1728477,1.3390167
1156,2026-05-11 16:07:30.857436,2.139332,0.25745404,-0.8325486,-2.0158553,2.1728477,1.3390167
1157,2026-05-11 16:07:30.860175,2.139332,0.25745404,-0.8325486,-2.0158553,2.1728477,1.3390167
1158,2026-05-11 16:07:30.862851,2.139332,0.25745404,-0.8325486,-2.0158553,2.1728477,1.3390167
1159,2026-05-11 16:07:30.865549,1.9038916,0.29837108,-0.7340672,-2.0158553,2.1728477,1.3390167
1160,2026-05-11 16:07:30.868612,1.9038916,0.29837108,-0.7340672,-2.0158553,2.1728477,1.3390167
1161,2026-05-11 16:07:30.871313,1.9038916,0.29837108,-0.7340672,-2.0158553,2.1728477,1.3390167
1162,2026-05-11 16:07:30.874085,1.9038916,0.29837108,-0.7340672,-2.041359,2.1552854,0.72586066
1163,2026-05-11 16:07:30.876848,1.9038916,0.29837108,-0.7340672,-2.041359,2.1552854,0.72586066
1164,2026-05-11 16:07:30.879440,1.9038916,0.29837108,-0.7340672,-2.041359,2.1552854,0.72586066
1165,2026-05-11 16:07:30.882329,1.9038916,0.29837108,-0.7340672,-2.041359,2.1552854,0.72586066
1166,2026-05-11 16:07:30.885323,1.9038916,0.29837108,-0.7340672,-2.041359,2.1552854,0.72586066
1167,2026-05-11 16:07:30.888231,1.9038916,0.29837108,-0.7340672,-2.041359,2.1552854,0.72586066
1168,2026-05-11 16:07:30.890875,1.9038916,0.29837108,-0.7340672,-2.041359,2.1552854,0.72586066
1169,2026-05-11 16:07:30.893455,1.9038916,0.29837108,-0.7340672,-2.041359,2.1552854,0.72586066
1170,2026-05-11 16:07:30.896215,1.9038916,0.29837108,-0.7340672,-2.041359,2.1552854,0.72586066
1171,2026-05-11 16:07:30.898819,1.9038916,0.29837108,-0.7340672,-2.041359,2.1552854,0.72586066
1172,2026-05-11 16:07:30.901808,1.9038916,0.29837108,-0.7340672,-2.041359,2.1552854,0.72586066
1173,2026-05-11 16:07:30.904554,1.9038916,0.29837108,-0.7340672,-2.041359,2.1552854,0.72586066
1174,2026-05-11 16:07:30.907114,1.9038916,0.29837108,-0.7340672,-2.041359,2.1552854,0.72586066
1175,2026-05-11 16:07:30.909671,1.9038916,0.29837108,-0.7340672,-2.041359,2.1552854,0.72586066
1176,2026-05-11 16:07:30.912416,1.9038916,0.29837108,-0.7340672,-2.041359,2.1552854,0.72586066
1177,2026-05-11 16:07:30.915208,1.7588831,0.27952853,-0.6723563,-1.8782579,1.9306396,0.20433442
1178,2026-05-11 16:07:30.918449,1.7588831,0.27952853,-0.6723563,-1.8782579,1.9306396,0.20433442
1179,2026-05-11 16:07:30.921375,1.7588831,0.27952853,-0.6723563,-1.8782579,1.9306396,0.20433442
1180,2026-05-11 16:07:30.924022,1.7588831,0.27952853,-0.6723563,-1.8782579,1.9306396,0.20433442
1181,2026-05-11 16:07:30.926590,1.7588831,0.27952853,-0.6723563,-1.8782579,1.9306396,0.20433442
1182,2026-05-11 16:07:30.929387,1.7588831,0.27952853,-0.6723563,-1.8782579,1.9306396,0.20433442
1183,2026-05-11 16:07:30.932065,1.7588831,0.27952853,-0.6723563,-1.8782579,1.9306396,0.20433442
1184,2026-05-11 16:07:30.935407,1.7588831,0.27952853,-0.6723563,-1.8782579,1.9306396,0.20433442
1185,2026-05-11 16:07:30.938170,1.7588831,0.27952853,-0.6723563,-1.8782579,1.9306396,0.20433442
1186,2026-05-11 16:07:30.941014,1.7588831,0.27952853,-0.6723563,-1.8782579,1.9306396,0.20433442
1187,2026-05-11 16:07:30.943778,1.7588831,0.27952853,-0.6723563,-1.3026701,1.244027,-0.5316055
1188,2026-05-11 16:07:30.946756,1.7202224,0.04414892,-0.57478964,-0.73471814,0.6085745,-1.0445796
1189,2026-05-11 16:07:30.949474,1.7202224,0.04414892,-0.57478964,-0.73471814,0.6085745,-1.0445796
1190,2026-05-11 16:07:30.952860,1.7202224,0.04414892,-0.57478964,-0.73471814,0.6085745,-1.0445796
1191,2026-05-11 16:07:30.955819,1.7202224,0.04414892,-0.57478964,-0.73471814,0.6085745,-1.0445796
1192,2026-05-11 16:07:30.958560,1.621802,-0.14720371,-0.6014985,-0.73471814,0.6085745,-1.0445796
1193,2026-05-11 16:07:30.961316,1.4600853,-0.29013887,-0.69943106,0.6058256,-0.9401216,-1.9614882
1194,2026-05-11 16:07:30.963982,1.4600853,-0.29013887,-0.69943106,0.6058256,-0.9401216,-1.9614882
1195,2026-05-11 16:07:30.966579,1.4600853,-0.29013887,-0.69943106,0.816116,-1.4191927,-2.0705278
1196,2026-05-11 16:07:30.970100,1.4600853,-0.29013887,-0.69943106,0.816116,-1.4191927,-2.0705278
1197,2026-05-11 16:07:30.973184,1.4413036,-0.35776478,-0.78583854,0.816116,-1.4191927,-2.0705278
1198,2026-05-11 16:07:30.975901,1.4413036,-0.35776478,-0.78583854,0.816116,-1.4191927,-2.0705278
1199,2026-05-11 16:07:30.978628,1.4413036,-0.35776478,-0.78583854,0.816116,-1.4191927,-2.0705278
1200,2026-05-11 16:07:30.981296,1.4413036,-0.35776478,-0.78583854,0.816116,-1.4191927,-2.0705278
1201,2026-05-11 16:07:30.984332,1.4413036,-0.35776478,-0.78583854,0.816116,-1.4191927,-2.0705278
1202,2026-05-11 16:07:30.987222,1.4413036,-0.35776478,-0.78583854,0.816116,-1.4191927,-2.0705278
1203,2026-05-11 16:07:30.990058,1.4413036,-0.35776478,-0.78583854,0.816116,-1.4191927,-2.0705278
1204,2026-05-11 16:07:30.992720,1.4413036,-0.35776478,-0.78583854,0.816116,-1.4191927,-2.0705278
1205,2026-05-11 16:07:30.995463,1.4413036,-0.35776478,-0.78583854,0.816116,-1.4191927,-2.0705278
1206,2026-05-11 16:07:30.998106,1.4413036,-0.35776478,-0.78583854,0.816116,-1.4191927,-2.0705278
1207,2026-05-11 16:07:31.001158,1.4413036,-0.35776478,-0.78583854,0.816116,-1.4191927,-2.0705278
1208,2026-05-11 16:07:31.003890,1.4413036,-0.35776478,-0.78583854,0.816116,-1.4191927,-2.0705278
1209,2026-05-11 16:07:31.006594,1.4413036,-0.35776478,-0.78583854,0.816116,-1.4191927,-2.0705278
1210,2026-05-11 16:07:31.009166,1.4413036,-0.35776478,-0.78583854,0.816116,-1.4191927,-2.0705278
1211,2026-05-11 16:07:31.012021,1.4413036,-0.35776478,-0.78583854,0.816116,-1.4191927,-2.0705278
1212,2026-05-11 16:07:31.014660,1.4413036,-0.35776478,-0.78583854,0.816116,-1.4191927,-2.0705278
1213,2026-05-11 16:07:31.017988,1.4413036,-0.35776478,-0.78583854,0.8237518,-1.7774651,-2.2131648
1214,2026-05-11 16:07:31.020712,1.4413036,-0.35776478,-0.78583854,0.8237518,-1.7774651,-2.2131648
1215,2026-05-11 16:07:31.023310,1.4413036,-0.35776478,-0.78583854,0.8237518,-1.7774651,-2.2131648
1216,2026-05-11 16:07:31.026077,1.4413036,-0.35776478,-0.78583854,0.8237518,-1.7774651,-2.2131648
1217,2026-05-11 16:07:31.028676,1.4413036,-0.35776478,-0.78583854,0.8237518,-1.7774651,-2.2131648
1218,2026-05-11 16:07:31.031246,1.4413036,-0.35776478,-0.78583854,0.8237518,-1.7774651,-2.2131648
1219,2026-05-11 16:07:31.034205,1.4413036,-0.35776478,-0.78583854,0.8237518,-1.7774651,-2.2131648
1220,2026-05-11 16:07:31.036919,1.4413036,-0.35776478,-0.78583854,0.8237518,-1.7774651,-2.2131648
1221,2026-05-11 16:07:31.039552,1.5258818,-0.43520832,-0.85535485,0.8237518,-1.7774651,-2.2131648
1222,2026-05-11 16:07:31.042147,1.5258818,-0.43520832,-0.85535485,0.8237518,-1.7774651,-2.2131648
1223,2026-05-11 16:07:31.044769,1.5258818,-0.43520832,-0.85535485,0.8237518,-1.7774651,-2.2131648
1224,2026-05-11 16:07:31.047309,1.5258818,-0.43520832,-0.85535485,0.8237518,-1.7774651,-2.2131648
1225,2026-05-11 16:07:31.050330,1.5258818,-0.43520832,-0.85535485,0.8237518,-1.7774651,-2.2131648
1226,2026-05-11 16:07:31.053039,1.5258818,-0.43520832,-0.85535485,0.8237518,-1.7774651,-2.2131648
1227,2026-05-11 16:07:31.055666,1.5258818,-0.43520832,-0.85535485,0.8237518,-1.7774651,-2.2131648
1228,2026-05-11 16:07:31.058403,1.5391752,-0.47990605,-0.88218564,0.8237518,-1.7774651,-2.2131648
1229,2026-05-11 16:07:31.060997,1.5391752,-0.47990605,-0.88218564,0.8237518,-1.7774651,-2.2131648
1230,2026-05-11 16:07:31.063584,1.5391752,-0.47990605,-0.88218564,0.8237518,-1.7774651,-2.2131648
1231,2026-05-11 16:07:31.066842,1.4334983,-0.56277674,-0.9675564,0.122783914,-1.5143349,-2.5059218
1232,2026-05-11 16:07:31.069736,1.3184305,-0.5928395,-1.0036561,0.122783914,-1.5143349,-2.5059218
1233,2026-05-11 16:07:31.072324,1.3184305,-0.5928395,-1.0036561,0.122783914,-1.5143349,-2.5059218
1234,2026-05-11 16:07:31.075243,1.3184305,-0.5928395,-1.0036561,-0.39568797,-1.165989,-2.4538457
1235,2026-05-11 16:07:31.077924,1.3184305,-0.5928395,-1.0036561,-0.39568797,-1.165989,-2.4538457
1236,2026-05-11 16:07:31.080530,1.3184305,-0.5928395,-1.0036561,-0.39568797,-1.165989,-2.4538457
1237,2026-05-11 16:07:31.083231,1.3184305,-0.5928395,-1.0036561,-0.39568797,-1.165989,-2.4538457
1238,2026-05-11 16:07:31.086435,1.3184305,-0.5928395,-1.0036561,-0.39568797,-1.165989,-2.4538457
1239,2026-05-11 16:07:31.089086,1.3184305,-0.5928395,-1.0036561,-0.39568797,-1.165989,-2.4538457
1240,2026-05-11 16:07:31.091686,1.3184305,-0.5928395,-1.0036561,-0.39568797,-1.165989,-2.4538457
1241,2026-05-11 16:07:31.094230,1.3184305,-0.5928395,-1.0036561,-0.39568797,-1.165989,-2.4538457
1242,2026-05-11 16:07:31.096932,1.3184305,-0.5928395,-1.0036561,-0.39568797,-1.165989,-2.4538457
1243,2026-05-11 16:07:31.099572,1.3184305,-0.5928395,-1.0036561,-0.39568797,-1.165989,-2.4538457
1244,2026-05-11 16:07:31.102818,1.3184305,-0.5928395,-1.0036561,-0.39568797,-1.165989,-2.4538457
1245,2026-05-11 16:07:31.105541,1.3184305,-0.5928395,-1.0036561,-0.39568797,-1.165989,-2.4538457
1246,2026-05-11 16:07:31.108266,1.3184305,-0.5928395,-1.0036561,-0.39568797,-1.165989,-2.4538457
1247,2026-05-11 16:07:31.110855,1.3184305,-0.5928395,-1.0036561,-0.39568797,-1.165989,-2.4538457
1248,2026-05-11 16:07:31.113407,1.3184305,-0.5928395,-1.0036561,-0.39568797,-1.165989,-2.4538457
1249,2026-05-11 16:07:31.116181,1.3184305,-0.5928395,-1.0036561,-0.39568797,-1.165989,-2.4538457
1250,2026-05-11 16:07:31.119447,1.3184305,-0.5928395,-1.0036561,-0.39568797,-1.165989,-2.4538457
1251,2026-05-11 16:07:31.122492,1.3184305,-0.5928395,-1.0036561,-0.39568797,-1.165989,-2.4538457
1252,2026-05-11 16:07:31.125237,1.3184305,-0.5928395,-1.0036561,-0.39568797,-1.165989,-2.4538457
1253,2026-05-11 16:07:31.127965,1.3184305,-0.5928395,-1.0036561,-0.39568797,-1.165989,-2.4538457
1254,2026-05-11 16:07:31.130723,1.3184305,-0.5928395,-1.0036561,-0.39568797,-1.165989,-2.4538457
1255,2026-05-11 16:07:31.133748,1.3184305,-0.5928395,-1.0036561,-1.1284208,-0.7060075,-2.2608123
1256,2026-05-11 16:07:31.136758,1.3184305,-0.5928395,-1.0036561,-1.1284208,-0.7060075,-2.2608123
1257,2026-05-11 16:07:31.139430,1.3184305,-0.5928395,-1.0036561,-1.1284208,-0.7060075,-2.2608123
1258,2026-05-11 16:07:31.142269,1.3184305,-0.5928395,-1.0036561,-1.1284208,-0.7060075,-2.2608123
1259,2026-05-11 16:07:31.144879,1.3184305,-0.5928395,-1.0036561,-1.1284208,-0.7060075,-2.2608123
1260,2026-05-11 16:07:31.147598,1.3184305,-0.5928395,-1.0036561,-1.1284208,-0.7060075,-2.2608123
1261,2026-05-11 16:07:31.150590,1.2242178,-0.5711309,-0.9844477,-1.1284208,-0.7060075,-2.2608123
