id,timestamp,acc_x,acc_y,acc_z,gyro_x,gyro_y,gyro_z
1,2026-05-11 16:09:53.530556,0.9087116,-0.3439225,0.7996808,-2.2661574,-2.6439774,-0.61651576
2,2026-05-11 16:09:53.541840,0.9087116,-0.3439225,0.7996808,-2.2661574,-2.6439774,-0.61651576
3,2026-05-11 16:09:53.544954,0.9087116,-0.3439225,0.7996808,-2.2661574,-2.6439774,-0.61651576
4,2026-05-11 16:09:53.547703,0.9087116,-0.3439225,0.7996808,-2.2661574,-2.6439774,-0.61651576
5,2026-05-11 16:09:53.550933,0.9087116,-0.3439225,0.7996808,-2.2661574,-2.6439774,-0.61651576
6,2026-05-11 16:09:53.553754,0.9087116,-0.3439225,0.7996808,-2.2661574,-2.6439774,-0.61651576
7,2026-05-11 16:09:53.556615,0.9087116,-0.3439225,0.7996808,-2.2661574,-2.6439774,-0.61651576
8,2026-05-11 16:09:53.559282,0.9087116,-0.3439225,0.7996808,-2.2661574,-2.6439774,-0.61651576
9,2026-05-11 16:09:53.562124,0.9087116,-0.3439225,0.7996808,-2.2661574,-2.6439774,-0.61651576
10,2026-05-11 16:09:53.564888,0.9087116,-0.3439225,0.7996808,-2.2661574,-2.6439774,-0.61651576
11,2026-05-11 16:09:53.568375,0.9087116,-0.3439225,0.7996808,-2.2661574,-2.6439774,-0.61651576
12,2026-05-11 16:09:53.571286,0.9087116,-0.3439225,0.7996808,-2.4489589,-2.6169467,-0.72082096
13,2026-05-11 16:09:53.574031,0.9087116,-0.3439225,0.7996808,-2.4489589,-2.6169467,-0.72082096
14,2026-05-11 16:09:53.576649,0.9087116,-0.3439225,0.7996808,-2.4489589,-2.6169467,-0.72082096
15,2026-05-11 16:09:53.579272,0.9087116,-0.3439225,0.7996808,-2.4489589,-2.6169467,-0.72082096
16,2026-05-11 16:09:53.581811,0.9087116,-0.3439225,0.7996808,-2.4489589,-2.6169467,-0.72082096
17,2026-05-11 16:09:53.585028,0.9087116,-0.3439225,0.7996808,-2.4489589,-2.6169467,-0.72082096
18,2026-05-11 16:09:53.587838,0.9087116,-0.3439225,0.7996808,-2.4489589,-2.6169467,-0.72082096
19,2026-05-11 16:09:53.590668,0.9087116,-0.3439225,0.7996808,-2.4489589,-2.6169467,-0.72082096
20,2026-05-11 16:09:53.593273,0.9087116,-0.3439225,0.7996808,-2.4489589,-2.6169467,-0.72082096
21,2026-05-11 16:09:53.596237,0.9087116,-0.3439225,0.7996808,-2.4489589,-2.6169467,-0.72082096
22,2026-05-11 16:09:53.598891,0.9087116,-0.3439225,0.7996808,-2.4489589,-2.6169467,-0.72082096
23,2026-05-11 16:09:53.602153,0.9087116,-0.3439225,0.7996808,-2.4489589,-2.6169467,-0.72082096
24,2026-05-11 16:09:53.604997,0.9087116,-0.3439225,0.7996808,-2.4489589,-2.6169467,-0.72082096
25,2026-05-11 16:09:53.607676,0.9087116,-0.3439225,0.7996808,-2.4489589,-2.6169467,-0.72082096
26,2026-05-11 16:09:53.610261,0.9087116,-0.3439225,0.7996808,-2.4489589,-2.6169467,-0.72082096
27,2026-05-11 16:09:53.613005,0.9087116,-0.3439225,0.7996808,-2.4489589,-2.6169467,-0.72082096
28,2026-05-11 16:09:53.615721,0.9087116,-0.3439225,0.7996808,-2.4489589,-2.6169467,-0.72082096
29,2026-05-11 16:09:53.619062,0.9087116,-0.3439225,0.7996808,-2.4489589,-2.6169467,-0.72082096
30,2026-05-11 16:09:53.621788,0.9087116,-0.3439225,0.7996808,-2.4489589,-2.6169467,-0.72082096
31,2026-05-11 16:09:53.624495,0.9087116,-0.3439225,0.7996808,-2.4489589,-2.6169467,-0.72082096
32,2026-05-11 16:09:53.627077,0.9087116,-0.3439225,0.7996808,-2.4489589,-2.6169467,-0.72082096
33,2026-05-11 16:09:53.629772,0.9087116,-0.3439225,0.7996808,-2.4489589,-2.6169467,-0.72082096
34,2026-05-11 16:09:53.632922,0.9087116,-0.3439225,0.7996808,-2.4489589,-2.6169467,-0.72082096
35,2026-05-11 16:09:53.635839,0.9087116,-0.3439225,0.7996808,-2.4489589,-2.6169467,-0.72082096
36,2026-05-11 16:09:53.638466,0.9087116,-0.3439225,0.7996808,-2.4489589,-2.6169467,-0.72082096
37,2026-05-11 16:09:53.641213,0.9087116,-0.3439225,0.7996808,-2.4489589,-2.6169467,-0.72082096
38,2026-05-11 16:09:53.643809,0.9087116,-0.3439225,0.7996808,-2.4489589,-2.6169467,-0.72082096
39,2026-05-11 16:09:53.646534,0.9087116,-0.3439225,0.7996808,-2.4489589,-2.6169467,-0.72082096
40,2026-05-11 16:09:53.649253,0.9087116,-0.3439225,0.7996808,-2.4489589,-2.6169467,-0.72082096
41,2026-05-11 16:09:53.652403,0.9087116,-0.3439225,0.7996808,-2.4489589,-2.6169467,-0.72082096
42,2026-05-11 16:09:53.655062,0.9087116,-0.3439225,0.7996808,-2.4489589,-2.6169467,-0.72082096
43,2026-05-11 16:09:53.657903,0.9087116,-0.3439225,0.7996808,-2.4489589,-2.6169467,-0.72082096
44,2026-05-11 16:09:53.660559,1.0004243,-0.3325194,1.0079857,-2.4489589,-2.6169467,-0.72082096
45,2026-05-11 16:09:53.663193,1.0004243,-0.3325194,1.0079857,-2.4489589,-2.6169467,-0.72082096
46,2026-05-11 16:09:53.665801,1.0004243,-0.3325194,1.0079857,-2.4489589,-2.6169467,-0.72082096
47,2026-05-11 16:09:53.668977,1.0004243,-0.3325194,1.0079857,-2.4489589,-2.6169467,-0.72082096
48,2026-05-11 16:09:53.671615,1.0004243,-0.3325194,1.0079857,-2.4489589,-2.6169467,-0.72082096
49,2026-05-11 16:09:53.674364,1.0004243,-0.3325194,1.0079857,-2.4489589,-2.6169467,-0.72082096
50,2026-05-11 16:09:53.676906,1.0004243,-0.3325194,1.0079857,-2.4489589,-2.6169467,-0.72082096
51,2026-05-11 16:09:53.679625,1.0004243,-0.3325194,1.0079857,-2.4489589,-2.6169467,-0.72082096
52,2026-05-11 16:09:53.682185,1.0004243,-0.3325194,1.0079857,-2.4489589,-2.6169467,-0.72082096
53,2026-05-11 16:09:53.685275,1.0004243,-0.3325194,1.0079857,-2.4489589,-2.6169467,-0.72082096
54,2026-05-11 16:09:53.688101,1.0004243,-0.3325194,1.0079857,-2.4489589,-2.6169467,-0.72082096
55,2026-05-11 16:09:53.690654,1.0004243,-0.3325194,1.0079857,-2.4489589,-2.6169467,-0.72082096
56,2026-05-11 16:09:53.693259,1.0004243,-0.3325194,1.0079857,-2.4489589,-2.6169467,-0.72082096
57,2026-05-11 16:09:53.695994,1.0004243,-0.3325194,1.0079857,-2.4489589,-2.6169467,-0.72082096
58,2026-05-11 16:09:53.698679,1.0004243,-0.3325194,1.0079857,-2.4489589,-2.6169467,-0.72082096
59,2026-05-11 16:09:53.701630,1.0004243,-0.3325194,1.0079857,-2.4489589,-2.6169467,-0.72082096
60,2026-05-11 16:09:53.704275,1.0004243,-0.3325194,1.0079857,-2.4489589,-2.6169467,-0.72082096
61,2026-05-11 16:09:53.707034,1.0004243,-0.3325194,1.0079857,-2.4489589,-2.6169467,-0.72082096
62,2026-05-11 16:09:53.709721,1.0004243,-0.3325194,1.0079857,-2.4489589,-2.6169467,-0.72082096
63,2026-05-11 16:09:53.712327,1.0004243,-0.3325194,1.0079857,-2.4489589,-2.6169467,-0.72082096
64,2026-05-11 16:09:53.714900,1.0004243,-0.3325194,1.0079857,-2.4489589,-2.6169467,-0.72082096
65,2026-05-11 16:09:53.718020,1.0004243,-0.3325194,1.0079857,-2.4489589,-2.6169467,-0.72082096
66,2026-05-11 16:09:53.720740,1.0004243,-0.3325194,1.0079857,-2.4489589,-2.6169467,-0.72082096
67,2026-05-11 16:09:53.723350,1.0004243,-0.3325194,1.0079857,-2.4489589,-2.6169467,-0.72082096
68,2026-05-11 16:09:53.726082,1.0004243,-0.3325194,1.0079857,-2.4489589,-2.6169467,-0.72082096
69,2026-05-11 16:09:53.728624,1.0004243,-0.3325194,1.0079857,-2.4489589,-2.6169467,-0.72082096
70,2026-05-11 16:09:53.731300,1.0004243,-0.3325194,1.0079857,-2.4489589,-2.6169467,-0.72082096
71,2026-05-11 16:09:53.734145,1.0004243,-0.3325194,1.0079857,-2.4489589,-2.6169467,-0.72082096
72,2026-05-11 16:09:53.737053,1.0004243,-0.3325194,1.0079857,-2.4489589,-2.6169467,-0.72082096
73,2026-05-11 16:09:53.739622,1.0004243,-0.3325194,1.0079857,-2.4489589,-2.6169467,-0.72082096
74,2026-05-11 16:09:53.742173,1.0004243,-0.3325194,1.0079857,-2.4489589,-2.6169467,-0.72082096
75,2026-05-11 16:09:53.744856,1.0004243,-0.3325194,1.0079857,-2.4489589,-2.6169467,-0.72082096
76,2026-05-11 16:09:53.747395,1.0004243,-0.3325194,1.0079857,-2.4489589,-2.6169467,-0.72082096
77,2026-05-11 16:09:53.750548,1.0004243,-0.3325194,1.0079857,-2.4489589,-2.6169467,-0.72082096
78,2026-05-11 16:09:53.753441,1.0004243,-0.3325194,1.0079857,-2.4489589,-2.6169467,-0.72082096
79,2026-05-11 16:09:53.756141,1.0004243,-0.3325194,1.0079857,-2.4489589,-2.6169467,-0.72082096
80,2026-05-11 16:09:53.758698,1.0004243,-0.3325194,1.0079857,-2.4489589,-2.6169467,-0.72082096
81,2026-05-11 16:09:53.761354,1.0004243,-0.3325194,1.0079857,-2.4489589,-2.6169467,-0.72082096
82,2026-05-11 16:09:53.763908,1.0004243,-0.3325194,1.0079857,-2.4489589,-2.6169467,-0.72082096
83,2026-05-11 16:09:53.766794,1.0004243,-0.3325194,1.0079857,-2.4489589,-2.6169467,-0.72082096
84,2026-05-11 16:09:53.769534,1.0004243,-0.3325194,1.0079857,-2.4489589,-2.6169467,-0.72082096
85,2026-05-11 16:09:53.772093,1.0004243,-0.3325194,1.0079857,-2.4489589,-2.6169467,-0.72082096
86,2026-05-11 16:09:53.774823,1.0004243,-0.3325194,1.0079857,-2.4489589,-2.6169467,-0.72082096
87,2026-05-11 16:09:53.777439,1.0004243,-0.3325194,1.0079857,-2.4489589,-2.6169467,-0.72082096
88,2026-05-11 16:09:53.779989,1.0004243,-0.3325194,1.0079857,-2.4489589,-2.6169467,-0.72082096
89,2026-05-11 16:09:53.782572,1.0004243,-0.3325194,1.0079857,-2.4489589,-2.6169467,-0.72082096
90,2026-05-11 16:09:53.785501,1.0004243,-0.3325194,1.0079857,-2.4489589,-2.6169467,-0.72082096
91,2026-05-11 16:09:53.788129,1.0004243,-0.3325194,1.0079857,-2.4489589,-2.6169467,-0.72082096
92,2026-05-11 16:09:53.790879,1.0004243,-0.3325194,1.0079857,-2.4489589,-2.6169467,-0.72082096
93,2026-05-11 16:09:53.793497,1.0004243,-0.3325194,1.0079857,-2.4489589,-2.6169467,-0.72082096
94,2026-05-11 16:09:53.796141,1.0004243,-0.3325194,1.0079857,-2.4489589,-2.6169467,-0.72082096
95,2026-05-11 16:09:53.798694,1.0004243,-0.3325194,1.0079857,-2.4489589,-2.6169467,-0.72082096
96,2026-05-11 16:09:53.801914,1.0004243,-0.3325194,1.0079857,-2.4489589,-2.6169467,-0.72082096
97,2026-05-11 16:09:53.804609,1.0004243,-0.3325194,1.0079857,-2.4489589,-2.6169467,-0.72082096
98,2026-05-11 16:09:53.807224,1.0004243,-0.3325194,1.0079857,-2.4489589,-2.6169467,-0.72082096
99,2026-05-11 16:09:53.809911,1.0004243,-0.3325194,1.0079857,-2.4489589,-2.6169467,-0.72082096
100,2026-05-11 16:09:53.812467,1.0004243,-0.3325194,1.0079857,-2.4489589,-2.6169467,-0.72082096
101,2026-05-11 16:09:53.815165,1.0004243,-0.3325194,1.0079857,-2.4489589,-2.6169467,-0.72082096
102,2026-05-11 16:09:53.818259,1.0004243,-0.3325194,1.0079857,-2.4489589,-2.6169467,-0.72082096
103,2026-05-11 16:09:53.821071,1.0004243,-0.3325194,1.0079857,-2.4489589,-2.6169467,-0.72082096
104,2026-05-11 16:09:53.823752,1.0004243,-0.3325194,1.0079857,-2.4489589,-2.6169467,-0.72082096
105,2026-05-11 16:09:53.826495,1.0004243,-0.3325194,1.0079857,-2.4489589,-2.6169467,-0.72082096
106,2026-05-11 16:09:53.829091,1.0004243,-0.3325194,1.0079857,-2.4489589,-2.6169467,-0.72082096
107,2026-05-11 16:09:53.831800,1.0004243,-0.3325194,1.0079857,-2.4489589,-2.6169467,-0.72082096
108,2026-05-11 16:09:53.834882,1.0004243,-0.3325194,1.0079857,-2.7250698,-2.4039075,-1.072374
109,2026-05-11 16:09:53.837578,1.0004243,-0.3325194,1.0079857,-2.7250698,-2.4039075,-1.072374
110,2026-05-11 16:09:53.840112,1.0004243,-0.3325194,1.0079857,-2.7250698,-2.4039075,-1.072374
111,2026-05-11 16:09:53.842893,1.0004243,-0.3325194,1.0079857,-2.7250698,-2.4039075,-1.072374
112,2026-05-11 16:09:53.845453,1.0004243,-0.3325194,1.0079857,-2.7250698,-2.4039075,-1.072374
113,2026-05-11 16:09:53.848076,1.0004243,-0.3325194,1.0079857,-2.7250698,-2.4039075,-1.072374
114,2026-05-11 16:09:53.851088,1.0004243,-0.3325194,1.0079857,-2.7250698,-2.4039075,-1.072374
115,2026-05-11 16:09:53.853705,1.0004243,-0.3325194,1.0079857,-2.7250698,-2.4039075,-1.072374
116,2026-05-11 16:09:53.856294,1.0004243,-0.3325194,1.0079857,-2.7250698,-2.4039075,-1.072374
117,2026-05-11 16:09:53.858834,1.0004243,-0.3325194,1.0079857,-2.7250698,-2.4039075,-1.072374
118,2026-05-11 16:09:53.861703,1.0004243,-0.3325194,1.0079857,-2.7250698,-2.4039075,-1.072374
119,2026-05-11 16:09:53.864307,1.0004243,-0.3325194,1.0079857,-2.7250698,-2.4039075,-1.072374
120,2026-05-11 16:09:53.867340,1.0004243,-0.3325194,1.0079857,-2.7250698,-2.4039075,-1.072374
121,2026-05-11 16:09:53.870099,1.0004243,-0.3325194,1.0079857,-2.7250698,-2.4039075,-1.072374
122,2026-05-11 16:09:53.872666,1.0004243,-0.3325194,1.0079857,-2.7250698,-2.4039075,-1.072374
123,2026-05-11 16:09:53.875252,1.0004243,-0.3325194,1.0079857,-2.7250698,-2.4039075,-1.072374
124,2026-05-11 16:09:53.878063,1.0004243,-0.3325194,1.0079857,-2.7250698,-2.4039075,-1.072374
125,2026-05-11 16:09:53.880763,1.0004243,-0.3325194,1.0079857,-2.7250698,-2.4039075,-1.072374
126,2026-05-11 16:09:53.883844,1.0004243,-0.3325194,1.0079857,-2.7250698,-2.4039075,-1.072374
127,2026-05-11 16:09:53.886720,1.0004243,-0.3325194,1.0079857,-2.7250698,-2.4039075,-1.072374
128,2026-05-11 16:09:53.889500,1.0004243,-0.3325194,1.0079857,-2.7250698,-2.4039075,-1.072374
129,2026-05-11 16:09:53.892184,1.0004243,-0.3325194,1.0079857,-2.7250698,-2.4039075,-1.072374
130,2026-05-11 16:09:53.894927,1.0004243,-0.3325194,1.0079857,-2.7250698,-2.4039075,-1.072374
131,2026-05-11 16:09:53.897507,1.0004243,-0.3325194,1.0079857,-2.7250698,-2.4039075,-1.072374
132,2026-05-11 16:09:53.900557,1.0004243,-0.3325194,1.0079857,-2.7250698,-2.4039075,-1.072374
133,2026-05-11 16:09:53.903618,0.99847287,-0.33690992,1.4422183,-2.7250698,-2.4039075,-1.072374
134,2026-05-11 16:09:53.906351,0.99847287,-0.33690992,1.4422183,-2.7250698,-2.4039075,-1.072374
135,2026-05-11 16:09:53.908916,0.99847287,-0.33690992,1.4422183,-2.7250698,-2.4039075,-1.072374
136,2026-05-11 16:09:53.937477,0.80394936,-0.46484417,0.76388603,4.570341,5.4385333,-0.10903945
137,2026-05-11 16:09:53.941170,0.80394936,-0.46484417,0.76388603,4.570341,5.4385333,-0.10903945
138,2026-05-11 16:09:53.949574,0.80394936,-0.46484417,0.76388603,4.570341,5.4385333,-0.10903945
139,2026-05-11 16:09:53.952651,0.80394936,-0.46484417,0.76388603,4.570341,5.4385333,-0.10903945
140,2026-05-11 16:09:53.955236,0.80394936,-0.46484417,0.76388603,4.570341,5.4385333,-0.10903945
141,2026-05-11 16:09:53.957978,0.80394936,-0.46484417,0.76388603,4.570341,5.4385333,-0.10903945
142,2026-05-11 16:09:53.960577,0.80394936,-0.46484417,0.76388603,4.570341,5.4385333,-0.10903945
143,2026-05-11 16:09:53.963172,0.80394936,-0.46484417,0.76388603,4.570341,5.4385333,-0.10903945
144,2026-05-11 16:09:53.965754,0.80394936,-0.46484417,0.76388603,4.570341,5.4385333,-0.10903945
145,2026-05-11 16:09:53.968886,0.80394936,-0.46484417,0.76388603,4.570341,5.4385333,-0.10903945
146,2026-05-11 16:09:53.971564,0.80394936,-0.46484417,0.76388603,4.570341,5.4385333,-0.10903945
147,2026-05-11 16:09:53.974144,0.80394936,-0.46484417,0.76388603,4.570341,5.4385333,-0.10903945
148,2026-05-11 16:09:53.976861,0.80394936,-0.46484417,0.76388603,4.570341,5.4385333,-0.10903945
149,2026-05-11 16:09:53.979443,0.80394936,-0.46484417,0.76388603,4.570341,5.4385333,-0.10903945
150,2026-05-11 16:09:53.982380,0.80394936,-0.46484417,0.76388603,4.570341,5.4385333,-0.10903945
151,2026-05-11 16:09:53.985542,0.80394936,-0.46484417,0.76388603,4.570341,5.4385333,-0.10903945
152,2026-05-11 16:09:53.988333,0.80394936,-0.46484417,0.76388603,4.570341,5.4385333,-0.10903945
153,2026-05-11 16:09:53.990940,0.80394936,-0.46484417,0.76388603,4.570341,5.4385333,-0.10903945
154,2026-05-11 16:09:53.993717,0.80394936,-0.46484417,0.76388603,4.570341,5.4385333,-0.10903945
155,2026-05-11 16:09:53.996309,0.80394936,-0.46484417,0.76388603,4.570341,5.4385333,-0.10903945
156,2026-05-11 16:09:53.998892,0.80394936,-0.46484417,0.76388603,4.570341,5.4385333,-0.10903945
157,2026-05-11 16:09:54.002107,0.80394936,-0.46484417,0.76388603,4.570341,5.4385333,-0.10903945
158,2026-05-11 16:09:54.004771,0.80394936,-0.46484417,0.76388603,4.570341,5.4385333,-0.10903945
159,2026-05-11 16:09:54.007331,0.80394936,-0.46484417,0.76388603,4.570341,5.4385333,-0.10903945
160,2026-05-11 16:09:54.010147,0.80394936,-0.46484417,0.76388603,4.570341,5.4385333,-0.10903945
161,2026-05-11 16:09:54.012736,0.80394936,-0.46484417,0.76388603,4.570341,5.4385333,-0.10903945
162,2026-05-11 16:09:54.015358,0.80394936,-0.46484417,0.76388603,4.570341,5.4385333,-0.10903945
163,2026-05-11 16:09:54.018224,0.80394936,-0.46484417,0.76388603,4.570341,5.4385333,-0.10903945
164,2026-05-11 16:09:54.020950,0.80394936,-0.46484417,0.76388603,4.570341,5.4385333,-0.10903945
165,2026-05-11 16:09:54.023518,0.80394936,-0.46484417,0.76388603,4.570341,5.4385333,-0.10903945
166,2026-05-11 16:09:54.026073,0.80394936,-0.46484417,0.76388603,4.570341,5.4385333,-0.10903945
167,2026-05-11 16:09:54.028748,0.80394936,-0.46484417,0.76388603,4.570341,5.4385333,-0.10903945
168,2026-05-11 16:09:54.031284,0.80394936,-0.46484417,0.76388603,4.570341,5.4385333,-0.10903945
169,2026-05-11 16:09:54.034171,0.80394936,-0.46484417,0.76388603,4.570341,5.4385333,-0.10903945
170,2026-05-11 16:09:54.037053,0.80394936,-0.46484417,0.76388603,4.570341,5.4385333,-0.10903945
171,2026-05-11 16:09:54.039653,0.80394936,-0.46484417,0.76388603,4.570341,5.4385333,-0.10903945
172,2026-05-11 16:09:54.042227,0.80394936,-0.46484417,0.76388603,4.570341,5.4385333,-0.10903945
173,2026-05-11 16:09:54.045026,0.80394936,-0.46484417,0.76388603,4.570341,5.4385333,-0.10903945
174,2026-05-11 16:09:54.047767,0.5136885,-0.5236891,-0.0032928751,5.230992,4.8612657,-0.172264
175,2026-05-11 16:09:54.050876,0.5136885,-0.5236891,-0.0032928751,5.230992,4.8612657,-0.172264
176,2026-05-11 16:09:54.053774,0.46069762,-0.48551616,-0.22928166,5.1644077,4.59447,0.031612277
177,2026-05-11 16:09:54.056394,0.46069762,-0.48551616,-0.22928166,5.1644077,4.59447,0.031612277
178,2026-05-11 16:09:54.058968,0.46069762,-0.48551616,-0.22928166,5.1644077,4.59447,0.031612277
179,2026-05-11 16:09:54.061659,0.46069762,-0.48551616,-0.22928166,5.1644077,4.59447,0.031612277
180,2026-05-11 16:09:54.064221,0.46069762,-0.48551616,-0.22928166,5.1644077,4.59447,0.031612277
181,2026-05-11 16:09:54.067252,0.46069762,-0.48551616,-0.22928166,5.1644077,4.59447,0.031612277
182,2026-05-11 16:09:54.069932,0.46069762,-0.48551616,-0.22928166,5.1644077,4.59447,0.031612277
183,2026-05-11 16:09:54.072477,0.46069762,-0.48551616,-0.22928166,5.1644077,4.59447,0.031612277
184,2026-05-11 16:09:54.075042,0.46069762,-0.48551616,-0.22928166,5.1644077,4.59447,0.031612277
185,2026-05-11 16:09:54.077825,0.46069762,-0.48551616,-0.22928166,5.1644077,4.59447,0.031612277
186,2026-05-11 16:09:54.080444,0.46069762,-0.48551616,-0.22928166,5.1644077,4.59447,0.031612277
187,2026-05-11 16:09:54.083343,0.46069762,-0.48551616,-0.22928166,5.1644077,4.59447,0.031612277
188,2026-05-11 16:09:54.086164,0.46069762,-0.48551616,-0.22928166,5.1644077,4.59447,0.031612277
189,2026-05-11 16:09:54.089035,0.46069762,-0.48551616,-0.22928166,5.1644077,4.59447,0.031612277
190,2026-05-11 16:09:54.091660,0.46069762,-0.48551616,-0.22928166,5.1644077,4.59447,0.031612277
191,2026-05-11 16:09:54.094273,0.46069762,-0.48551616,-0.22928166,5.1644077,4.59447,0.031612277
192,2026-05-11 16:09:54.096952,0.46069762,-0.48551616,-0.22928166,5.1644077,4.59447,0.031612277
193,2026-05-11 16:09:54.100028,0.46069762,-0.48551616,-0.22928166,5.1644077,4.59447,0.031612277
194,2026-05-11 16:09:54.102953,0.46069762,-0.48551616,-0.22928166,5.1644077,4.59447,0.031612277
195,2026-05-11 16:09:54.105542,0.46069762,-0.48551616,-0.22928166,5.1644077,4.59447,0.031612277
196,2026-05-11 16:09:54.108138,0.46069762,-0.48551616,-0.22928166,5.1644077,4.59447,0.031612277
197,2026-05-11 16:09:54.110706,0.46069762,-0.48551616,-0.22928166,5.1644077,4.59447,0.031612277
198,2026-05-11 16:09:54.113457,0.46069762,-0.48551616,-0.22928166,5.1644077,4.59447,0.031612277
199,2026-05-11 16:09:54.116137,0.46069762,-0.48551616,-0.22928166,5.1644077,4.59447,0.031612277
200,2026-05-11 16:09:54.119278,0.46069762,-0.48551616,-0.22928166,5.1644077,4.59447,0.031612277
201,2026-05-11 16:09:54.121969,0.46069762,-0.48551616,-0.22928166,5.1644077,4.59447,0.031612277
202,2026-05-11 16:09:54.124569,0.46069762,-0.48551616,-0.22928166,5.1644077,4.59447,0.031612277
203,2026-05-11 16:09:54.127378,0.46069762,-0.48551616,-0.22928166,5.1644077,4.59447,0.031612277
204,2026-05-11 16:09:54.129945,0.46069762,-0.48551616,-0.22928166,5.1644077,4.59447,0.031612277
205,2026-05-11 16:09:54.132865,0.46069762,-0.48551616,-0.22928166,5.1644077,4.59447,0.031612277
206,2026-05-11 16:09:54.135994,0.46069762,-0.48551616,-0.22928166,5.1644077,4.59447,0.031612277
207,2026-05-11 16:09:54.138685,0.46069762,-0.48551616,-0.22928166,5.1644077,4.59447,0.031612277
208,2026-05-11 16:09:54.141346,0.46069762,-0.48551616,-0.22928166,5.1644077,4.59447,0.031612277
209,2026-05-11 16:09:54.143926,0.46069762,-0.48551616,-0.22928166,5.1644077,4.59447,0.031612277
210,2026-05-11 16:09:54.146696,0.46069762,-0.48551616,-0.22928166,5.1644077,4.59447,0.031612277
211,2026-05-11 16:09:54.149324,0.46069762,-0.48551616,-0.22928166,5.1644077,4.59447,0.031612277
212,2026-05-11 16:09:54.152582,0.46069762,-0.48551616,-0.22928166,5.1644077,4.59447,0.031612277
213,2026-05-11 16:09:54.155322,0.46069762,-0.48551616,-0.22928166,5.1644077,4.59447,0.031612277
214,2026-05-11 16:09:54.157927,0.46069762,-0.48551616,-0.22928166,5.1644077,4.59447,0.031612277
215,2026-05-11 16:09:54.160586,0.46069762,-0.48551616,-0.22928166,5.1644077,4.59447,0.031612277
216,2026-05-11 16:09:54.163351,0.46069762,-0.48551616,-0.22928166,5.1644077,4.59447,0.031612277
217,2026-05-11 16:09:54.166394,0.46069762,-0.48551616,-0.22928166,5.1644077,4.59447,0.031612277
218,2026-05-11 16:09:54.169260,0.46069762,-0.48551616,-0.22928166,5.1644077,4.59447,0.031612277
219,2026-05-11 16:09:54.171908,0.46069762,-0.48551616,-0.22928166,5.1644077,4.59447,0.031612277
220,2026-05-11 16:09:54.174658,0.46069762,-0.48551616,-0.22928166,5.1644077,4.59447,0.031612277
221,2026-05-11 16:09:54.177260,0.46069762,-0.48551616,-0.22928166,5.1644077,4.59447,0.031612277
222,2026-05-11 16:09:54.180075,0.46069762,-0.48551616,-0.22928166,5.1644077,4.59447,0.031612277
223,2026-05-11 16:09:54.182873,0.46069762,-0.48551616,-0.22928166,4.4829874,4.526817,0.15317446
224,2026-05-11 16:09:54.186065,0.46069762,-0.48551616,-0.22928166,4.4829874,4.526817,0.15317446
225,2026-05-11 16:09:54.188674,0.45886827,-0.37593657,-0.5215548,4.4829874,4.526817,0.15317446
226,2026-05-11 16:09:54.191477,0.46149033,-0.2622714,-0.608877,4.4829874,4.526817,0.15317446
227,2026-05-11 16:09:54.194051,0.46149033,-0.2622714,-0.608877,4.4829874,4.526817,0.15317446
228,2026-05-11 16:09:54.196776,0.46149033,-0.2622714,-0.608877,4.4829874,4.526817,0.15317446
229,2026-05-11 16:09:54.199349,0.46149033,-0.2622714,-0.608877,4.4829874,4.526817,0.15317446
230,2026-05-11 16:09:54.202348,0.46149033,-0.2622714,-0.608877,4.4829874,4.526817,0.15317446
231,2026-05-11 16:09:54.205085,0.46149033,-0.2622714,-0.608877,4.4829874,4.526817,0.15317446
232,2026-05-11 16:09:54.207654,0.46149033,-0.2622714,-0.608877,4.4829874,4.526817,0.15317446
233,2026-05-11 16:09:54.210204,0.46149033,-0.2622714,-0.608877,4.4829874,4.526817,0.15317446
234,2026-05-11 16:09:54.213013,0.46149033,-0.2622714,-0.608877,4.4829874,4.526817,0.15317446
235,2026-05-11 16:09:54.215592,0.46149033,-0.2622714,-0.608877,4.4829874,4.526817,0.15317446
236,2026-05-11 16:09:54.218739,0.46149033,-0.2622714,-0.608877,4.4829874,4.526817,0.15317446
237,2026-05-11 16:09:54.221405,0.46149033,-0.2622714,-0.608877,4.4829874,4.526817,0.15317446
238,2026-05-11 16:09:54.224125,0.46149033,-0.2622714,-0.608877,4.4829874,4.526817,0.15317446
239,2026-05-11 16:09:54.226749,0.46149033,-0.2622714,-0.608877,4.4829874,4.526817,0.15317446
240,2026-05-11 16:09:54.229396,0.46149033,-0.2622714,-0.608877,4.4829874,4.526817,0.15317446
241,2026-05-11 16:09:54.231943,0.46149033,-0.2622714,-0.608877,4.4829874,4.526817,0.15317446
242,2026-05-11 16:09:54.235125,0.46149033,-0.2622714,-0.608877,4.4829874,4.526817,0.15317446
243,2026-05-11 16:09:54.237799,0.46149033,-0.2622714,-0.608877,4.4829874,4.526817,0.15317446
244,2026-05-11 16:09:54.240383,0.46149033,-0.2622714,-0.608877,4.4829874,4.526817,0.15317446
245,2026-05-11 16:09:54.243003,0.46149033,-0.2622714,-0.608877,4.4829874,4.526817,0.15317446
246,2026-05-11 16:09:54.245557,0.46149033,-0.2622714,-0.608877,4.4829874,4.526817,0.15317446
247,2026-05-11 16:09:54.248158,0.46149033,-0.2622714,-0.608877,4.4829874,4.526817,0.15317446
248,2026-05-11 16:09:54.251210,0.46149033,-0.2622714,-0.608877,4.4829874,4.526817,0.15317446
249,2026-05-11 16:09:54.254097,0.46149033,-0.2622714,-0.608877,4.4829874,4.526817,0.15317446
250,2026-05-11 16:09:54.256740,0.46149033,-0.2622714,-0.608877,4.4829874,4.526817,0.15317446
251,2026-05-11 16:09:54.259326,0.46149033,-0.2622714,-0.608877,4.4829874,4.526817,0.15317446
252,2026-05-11 16:09:54.261944,0.46149033,-0.2622714,-0.608877,4.4829874,4.526817,0.15317446
253,2026-05-11 16:09:54.264497,0.46149033,-0.2622714,-0.608877,4.4829874,4.526817,0.15317446
254,2026-05-11 16:09:54.267653,0.46149033,-0.2622714,-0.608877,4.4829874,4.526817,0.15317446
255,2026-05-11 16:09:54.270468,0.46149033,-0.2622714,-0.608877,4.4829874,4.526817,0.15317446
256,2026-05-11 16:09:54.273149,0.46149033,-0.2622714,-0.608877,4.4829874,4.526817,0.15317446
257,2026-05-11 16:09:54.275762,0.46149033,-0.2622714,-0.608877,4.4829874,4.526817,0.15317446
258,2026-05-11 16:09:54.278477,0.46149033,-0.2622714,-0.608877,4.4829874,4.526817,0.15317446
259,2026-05-11 16:09:54.281038,0.46149033,-0.2622714,-0.608877,4.4829874,4.526817,0.15317446
260,2026-05-11 16:09:54.284155,0.46149033,-0.2622714,-0.608877,4.4829874,4.526817,0.15317446
261,2026-05-11 16:09:54.286972,0.46149033,-0.2622714,-0.608877,4.4829874,4.526817,0.15317446
262,2026-05-11 16:09:54.289589,0.46149033,-0.2622714,-0.608877,4.4829874,4.526817,0.15317446
263,2026-05-11 16:09:54.292169,0.46149033,-0.2622714,-0.608877,4.4829874,4.526817,0.15317446
264,2026-05-11 16:09:54.294753,0.46149033,-0.2622714,-0.608877,4.4829874,4.526817,0.15317446
265,2026-05-11 16:09:54.297589,0.46149033,-0.2622714,-0.608877,4.4829874,4.526817,0.15317446
266,2026-05-11 16:09:54.300759,0.46149033,-0.2622714,-0.608877,4.4829874,4.526817,0.15317446
267,2026-05-11 16:09:54.303580,0.46149033,-0.2622714,-0.608877,4.4829874,4.526817,0.15317446
268,2026-05-11 16:09:54.306210,0.46149033,-0.2622714,-0.608877,4.4829874,4.526817,0.15317446
269,2026-05-11 16:09:54.308765,0.46149033,-0.2622714,-0.608877,4.4829874,4.526817,0.15317446
270,2026-05-11 16:09:54.311435,0.46149033,-0.2622714,-0.608877,4.4829874,4.526817,0.15317446
271,2026-05-11 16:09:54.314019,0.46149033,-0.2622714,-0.608877,4.4829874,4.526817,0.15317446
272,2026-05-11 16:09:54.316989,0.46149033,-0.2622714,-0.608877,4.4829874,4.526817,0.15317446
273,2026-05-11 16:09:54.319723,0.46149033,-0.2622714,-0.608877,4.4829874,4.526817,0.15317446
274,2026-05-11 16:09:54.322274,0.46149033,-0.2622714,-0.608877,4.4829874,4.526817,0.15317446
275,2026-05-11 16:09:54.325058,0.46149033,-0.2622714,-0.608877,4.4829874,4.526817,0.15317446
276,2026-05-11 16:09:54.327635,0.46149033,-0.2622714,-0.608877,4.4829874,4.526817,0.15317446
277,2026-05-11 16:09:54.330181,0.46149033,-0.2622714,-0.608877,4.4829874,4.526817,0.15317446
278,2026-05-11 16:09:54.333410,0.46149033,-0.2622714,-0.608877,4.4829874,4.526817,0.15317446
279,2026-05-11 16:09:54.336296,0.46149033,-0.2622714,-0.608877,4.4829874,4.526817,0.15317446
280,2026-05-11 16:09:54.338963,0.46149033,-0.2622714,-0.608877,4.4829874,4.526817,0.15317446
281,2026-05-11 16:09:54.341573,0.46149033,-0.2622714,-0.608877,4.00132,4.1430407,0.08323039
282,2026-05-11 16:09:54.344440,0.46149033,-0.2622714,-0.608877,4.00132,4.1430407,0.08323039
283,2026-05-11 16:09:54.347050,0.46149033,-0.2622714,-0.608877,4.00132,4.1430407,0.08323039
284,2026-05-11 16:09:54.350101,0.46149033,-0.2622714,-0.608877,4.00132,4.1430407,0.08323039
285,2026-05-11 16:09:54.353108,0.46149033,-0.2622714,-0.608877,4.00132,4.1430407,0.08323039
286,2026-05-11 16:09:54.355742,0.46149033,-0.2622714,-0.608877,4.00132,4.1430407,0.08323039
287,2026-05-11 16:09:54.358454,0.46149033,-0.2622714,-0.608877,4.00132,4.1430407,0.08323039
288,2026-05-11 16:09:54.361070,0.46149033,-0.2622714,-0.608877,4.00132,4.1430407,0.08323039
289,2026-05-11 16:09:54.363756,0.46149033,-0.2622714,-0.608877,4.00132,4.1430407,0.08323039
290,2026-05-11 16:09:54.366618,0.46149033,-0.2622714,-0.608877,4.00132,4.1430407,0.08323039
291,2026-05-11 16:09:54.369701,0.46149033,-0.2622714,-0.608877,4.00132,4.1430407,0.08323039
292,2026-05-11 16:09:54.372335,0.46149033,-0.2622714,-0.608877,4.00132,4.1430407,0.08323039
293,2026-05-11 16:09:54.374905,0.46149033,-0.2622714,-0.608877,4.00132,4.1430407,0.08323039
294,2026-05-11 16:09:54.377697,0.46149033,-0.2622714,-0.608877,4.00132,4.1430407,0.08323039
295,2026-05-11 16:09:54.380296,0.46149033,-0.2622714,-0.608877,4.00132,4.1430407,0.08323039
296,2026-05-11 16:09:54.383084,0.46149033,-0.2622714,-0.608877,4.00132,4.1430407,0.08323039
297,2026-05-11 16:09:54.386225,0.46149033,-0.2622714,-0.608877,4.00132,4.1430407,0.08323039
298,2026-05-11 16:09:54.388961,0.46149033,-0.2622714,-0.608877,4.00132,4.1430407,0.08323039
299,2026-05-11 16:09:54.391651,0.46149033,-0.2622714,-0.608877,4.00132,4.1430407,0.08323039
300,2026-05-11 16:09:54.394251,0.46149033,-0.2622714,-0.608877,4.00132,4.1430407,0.08323039
301,2026-05-11 16:09:54.397002,0.46149033,-0.2622714,-0.608877,4.00132,4.1430407,0.08323039
302,2026-05-11 16:09:54.400319,0.46149033,-0.2622714,-0.608877,4.00132,4.1430407,0.08323039
303,2026-05-11 16:09:54.403169,0.46149033,-0.2622714,-0.608877,4.00132,4.1430407,0.08323039
304,2026-05-11 16:09:54.405733,0.46149033,-0.2622714,-0.608877,4.00132,4.1430407,0.08323039
305,2026-05-11 16:09:54.408514,0.46149033,-0.2622714,-0.608877,4.00132,4.1430407,0.08323039
306,2026-05-11 16:09:54.411105,0.46149033,-0.2622714,-0.608877,4.00132,4.1430407,0.08323039
307,2026-05-11 16:09:54.413617,0.46149033,-0.2622714,-0.608877,4.00132,4.1430407,0.08323039
308,2026-05-11 16:09:54.416607,0.46149033,-0.2622714,-0.608877,4.00132,4.1430407,0.08323039
309,2026-05-11 16:09:54.419323,0.46149033,-0.2622714,-0.608877,4.00132,4.1430407,0.08323039
310,2026-05-11 16:09:54.421957,0.46149033,-0.2622714,-0.608877,4.00132,4.1430407,0.08323039
311,2026-05-11 16:09:54.424598,0.46149033,-0.2622714,-0.608877,4.00132,4.1430407,0.08323039
312,2026-05-11 16:09:54.427203,0.46149033,-0.2622714,-0.608877,4.00132,4.1430407,0.08323039
313,2026-05-11 16:09:54.429790,0.46149033,-0.2622714,-0.608877,4.00132,4.1430407,0.08323039
314,2026-05-11 16:09:54.432433,0.46149033,-0.2622714,-0.608877,4.00132,4.1430407,0.08323039
315,2026-05-11 16:09:54.435397,0.46149033,-0.2622714,-0.608877,4.00132,4.1430407,0.08323039
316,2026-05-11 16:09:54.438206,0.37764397,-0.18812074,-0.6665023,4.00132,4.1430407,0.08323039
317,2026-05-11 16:09:54.440923,0.37764397,-0.18812074,-0.6665023,4.00132,4.1430407,0.08323039
318,2026-05-11 16:09:54.443537,0.37764397,-0.18812074,-0.6665023,4.00132,4.1430407,0.08323039
319,2026-05-11 16:09:54.446320,0.37764397,-0.18812074,-0.6665023,4.00132,4.1430407,0.08323039
320,2026-05-11 16:09:54.449097,0.37764397,-0.18812074,-0.6665023,4.00132,4.1430407,0.08323039
321,2026-05-11 16:09:54.452349,0.37764397,-0.18812074,-0.6665023,4.00132,4.1430407,0.08323039
322,2026-05-11 16:09:54.455076,0.37764397,-0.18812074,-0.6665023,4.00132,4.1430407,0.08323039
323,2026-05-11 16:09:54.457710,0.37764397,-0.18812074,-0.6665023,4.00132,4.1430407,0.08323039
324,2026-05-11 16:09:54.460487,0.37764397,-0.18812074,-0.6665023,4.00132,4.1430407,0.08323039
325,2026-05-11 16:09:54.463095,0.37764397,-0.18812074,-0.6665023,4.00132,4.1430407,0.08323039
326,2026-05-11 16:09:54.465841,0.37764397,-0.18812074,-0.6665023,4.00132,4.1430407,0.08323039
327,2026-05-11 16:09:54.468763,0.37764397,-0.18812074,-0.6665023,4.00132,4.1430407,0.08323039
328,2026-05-11 16:09:54.471455,0.37764397,-0.18812074,-0.6665023,4.00132,4.1430407,0.08323039
329,2026-05-11 16:09:54.474032,0.37764397,-0.18812074,-0.6665023,4.00132,4.1430407,0.08323039
330,2026-05-11 16:09:54.476593,0.37764397,-0.18812074,-0.6665023,4.00132,4.1430407,0.08323039
331,2026-05-11 16:09:54.479366,0.37764397,-0.18812074,-0.6665023,4.00132,4.1430407,0.08323039
332,2026-05-11 16:09:54.481961,0.37764397,-0.18812074,-0.6665023,4.00132,4.1430407,0.08323039
333,2026-05-11 16:09:54.484976,0.37764397,-0.18812074,-0.6665023,4.00132,4.1430407,0.08323039
334,2026-05-11 16:09:54.487638,0.37764397,-0.18812074,-0.6665023,4.00132,4.1430407,0.08323039
335,2026-05-11 16:09:54.490224,0.37764397,-0.18812074,-0.6665023,4.00132,4.1430407,0.08323039
336,2026-05-11 16:09:54.492959,0.37764397,-0.18812074,-0.6665023,4.00132,4.1430407,0.08323039
337,2026-05-11 16:09:54.495575,0.37764397,-0.18812074,-0.6665023,3.877009,3.510948,-0.10949759
338,2026-05-11 16:09:54.498249,0.37764397,-0.18812074,-0.6665023,3.877009,3.510948,-0.10949759
339,2026-05-11 16:09:54.501280,0.37764397,-0.18812074,-0.6665023,3.877009,3.510948,-0.10949759
340,2026-05-11 16:09:54.504254,0.37764397,-0.18812074,-0.6665023,3.877009,3.510948,-0.10949759
341,2026-05-11 16:09:54.506956,0.37764397,-0.18812074,-0.6665023,3.877009,3.510948,-0.10949759
342,2026-05-11 16:09:54.509648,0.37764397,-0.18812074,-0.6665023,3.877009,3.510948,-0.10949759
343,2026-05-11 16:09:54.512202,0.37764397,-0.18812074,-0.6665023,3.877009,3.510948,-0.10949759
344,2026-05-11 16:09:54.514947,0.37764397,-0.18812074,-0.6665023,3.877009,3.510948,-0.10949759
345,2026-05-11 16:09:54.517899,0.37764397,-0.18812074,-0.6665023,3.877009,3.510948,-0.10949759
346,2026-05-11 16:09:54.520645,0.37764397,-0.18812074,-0.6665023,3.877009,3.510948,-0.10949759
347,2026-05-11 16:09:54.523301,0.37764397,-0.18812074,-0.6665023,3.877009,3.510948,-0.10949759
348,2026-05-11 16:09:54.525870,0.37764397,-0.18812074,-0.6665023,3.877009,3.510948,-0.10949759
349,2026-05-11 16:09:54.528677,0.37764397,-0.18812074,-0.6665023,3.877009,3.510948,-0.10949759
350,2026-05-11 16:09:54.531289,0.37764397,-0.18812074,-0.6665023,3.877009,3.510948,-0.10949759
351,2026-05-11 16:09:54.534235,0.37764397,-0.18812074,-0.6665023,3.877009,3.510948,-0.10949759
352,2026-05-11 16:09:54.536967,0.37764397,-0.18812074,-0.6665023,3.877009,3.510948,-0.10949759
353,2026-05-11 16:09:54.539505,0.37764397,-0.18812074,-0.6665023,3.877009,3.510948,-0.10949759
354,2026-05-11 16:09:54.542299,0.37764397,-0.18812074,-0.6665023,3.877009,3.510948,-0.10949759
355,2026-05-11 16:09:54.545007,0.37764397,-0.18812074,-0.6665023,3.877009,3.510948,-0.10949759
356,2026-05-11 16:09:54.547593,0.37764397,-0.18812074,-0.6665023,3.877009,3.510948,-0.10949759
357,2026-05-11 16:09:54.550725,0.37764397,-0.18812074,-0.6665023,3.877009,3.510948,-0.10949759
358,2026-05-11 16:09:54.553498,0.37764397,-0.18812074,-0.6665023,3.7864482,2.6488645,-0.29245174
359,2026-05-11 16:09:54.556229,0.37764397,-0.18812074,-0.6665023,3.7864482,2.6488645,-0.29245174
360,2026-05-11 16:09:54.558934,0.37764397,-0.18812074,-0.6665023,3.7864482,2.6488645,-0.29245174
361,2026-05-11 16:09:54.561654,0.37764397,-0.18812074,-0.6665023,3.7864482,2.6488645,-0.29245174
362,2026-05-11 16:09:54.564265,0.37764397,-0.18812074,-0.6665023,3.7864482,2.6488645,-0.29245174
363,2026-05-11 16:09:54.567366,0.37764397,-0.18812074,-0.6665023,3.7864482,2.6488645,-0.29245174
364,2026-05-11 16:09:54.570251,0.37764397,-0.18812074,-0.6665023,3.7864482,2.6488645,-0.29245174
365,2026-05-11 16:09:54.572957,0.37764397,-0.18812074,-0.6665023,3.7864482,2.6488645,-0.29245174
366,2026-05-11 16:09:54.575558,0.37764397,-0.18812074,-0.6665023,3.7864482,2.6488645,-0.29245174
367,2026-05-11 16:09:54.578253,0.37764397,-0.18812074,-0.6665023,3.7864482,2.6488645,-0.29245174
368,2026-05-11 16:09:54.580834,0.37764397,-0.18812074,-0.6665023,3.7864482,2.6488645,-0.29245174
369,2026-05-11 16:09:54.583836,0.37764397,-0.18812074,-0.6665023,3.7864482,2.6488645,-0.29245174
370,2026-05-11 16:09:54.586501,0.37764397,-0.18812074,-0.6665023,3.7864482,2.6488645,-0.29245174
371,2026-05-11 16:09:54.589236,0.37764397,-0.18812074,-0.6665023,3.7864482,2.6488645,-0.29245174
372,2026-05-11 16:09:54.591873,0.37764397,-0.18812074,-0.6665023,3.7864482,2.6488645,-0.29245174
373,2026-05-11 16:09:54.594572,0.37764397,-0.18812074,-0.6665023,3.7864482,2.6488645,-0.29245174
374,2026-05-11 16:09:54.597269,0.37764397,-0.18812074,-0.6665023,3.7864482,2.6488645,-0.29245174
375,2026-05-11 16:09:54.600360,0.37764397,-0.18812074,-0.6665023,3.7864482,2.6488645,-0.29245174
376,2026-05-11 16:09:54.603237,0.37764397,-0.18812074,-0.6665023,3.7864482,2.6488645,-0.29245174
377,2026-05-11 16:09:54.605949,0.2116587,-0.18226673,-0.8452932,3.7864482,2.6488645,-0.29245174
378,2026-05-11 16:09:54.608552,0.2116587,-0.18226673,-0.8452932,3.7864482,2.6488645,-0.29245174
379,2026-05-11 16:09:54.611137,0.2116587,-0.18226673,-0.8452932,3.7864482,2.6488645,-0.29245174
380,2026-05-11 16:09:54.613867,0.2116587,-0.18226673,-0.8452932,3.7864482,2.6488645,-0.29245174
381,2026-05-11 16:09:54.616493,0.2116587,-0.18226673,-0.8452932,3.7864482,2.6488645,-0.29245174
382,2026-05-11 16:09:54.619833,0.2116587,-0.18226673,-0.8452932,3.7864482,2.6488645,-0.29245174
383,2026-05-11 16:09:54.622555,0.2116587,-0.18226673,-0.8452932,3.7864482,2.6488645,-0.29245174
384,2026-05-11 16:09:54.625315,0.2116587,-0.18226673,-0.8452932,3.7864482,2.6488645,-0.29245174
385,2026-05-11 16:09:54.627939,0.2116587,-0.18226673,-0.8452932,3.7864482,2.6488645,-0.29245174
386,2026-05-11 16:09:54.630782,0.2116587,-0.18226673,-0.8452932,3.7864482,2.6488645,-0.29245174
387,2026-05-11 16:09:54.633525,0.2116587,-0.18226673,-0.8452932,3.7864482,2.6488645,-0.29245174
388,2026-05-11 16:09:54.636958,0.2116587,-0.18226673,-0.8452932,3.7864482,2.6488645,-0.29245174
389,2026-05-11 16:09:54.639785,0.2116587,-0.18226673,-0.8452932,3.7864482,2.6488645,-0.29245174
390,2026-05-11 16:09:54.642570,0.2116587,-0.18226673,-0.8452932,3.7864482,2.6488645,-0.29245174
391,2026-05-11 16:09:54.645241,0.2116587,-0.18226673,-0.8452932,3.7864482,2.6488645,-0.29245174
392,2026-05-11 16:09:54.647835,0.2116587,-0.18226673,-0.8452932,3.7864482,2.6488645,-0.29245174
393,2026-05-11 16:09:54.651013,0.2116587,-0.18226673,-0.8452932,3.7864482,2.6488645,-0.29245174
394,2026-05-11 16:09:54.653919,0.2116587,-0.18226673,-0.8452932,3.7864482,2.6488645,-0.29245174
395,2026-05-11 16:09:54.656606,0.2116587,-0.18226673,-0.8452932,3.7864482,2.6488645,-0.29245174
396,2026-05-11 16:09:54.659225,0.2116587,-0.18226673,-0.8452932,3.7864482,2.6488645,-0.29245174
397,2026-05-11 16:09:54.661831,0.2116587,-0.18226673,-0.8452932,3.7864482,2.6488645,-0.29245174
398,2026-05-11 16:09:54.664371,0.2116587,-0.18226673,-0.8452932,3.7864482,2.6488645,-0.29245174
399,2026-05-11 16:09:54.667763,0.2116587,-0.18226673,-0.8452932,3.7864482,2.6488645,-0.29245174
400,2026-05-11 16:09:54.670650,0.2116587,-0.18226673,-0.8452932,3.7864482,2.6488645,-0.29245174
401,2026-05-11 16:09:54.673278,0.2116587,-0.18226673,-0.8452932,3.7864482,2.6488645,-0.29245174
402,2026-05-11 16:09:54.675843,0.2116587,-0.18226673,-0.8452932,3.7864482,2.6488645,-0.29245174
403,2026-05-11 16:09:54.678448,0.2116587,-0.18226673,-0.8452932,3.7864482,2.6488645,-0.29245174
404,2026-05-11 16:09:54.680979,0.2116587,-0.18226673,-0.8452932,3.7864482,2.6488645,-0.29245174
405,2026-05-11 16:09:54.684046,0.2116587,-0.18226673,-0.8452932,3.7864482,2.6488645,-0.29245174
406,2026-05-11 16:09:54.686835,0.2116587,-0.18226673,-0.8452932,3.7864482,2.6488645,-0.29245174
407,2026-05-11 16:09:54.689412,0.2116587,-0.18226673,-0.8452932,3.7864482,2.6488645,-0.29245174
408,2026-05-11 16:09:54.692328,0.2116587,-0.18226673,-0.8452932,3.7864482,2.6488645,-0.29245174
409,2026-05-11 16:09:54.695066,0.2116587,-0.18226673,-0.8452932,3.7864482,2.6488645,-0.29245174
410,2026-05-11 16:09:54.697765,0.2116587,-0.18226673,-0.8452932,3.7864482,2.6488645,-0.29245174
411,2026-05-11 16:09:54.700805,0.2116587,-0.18226673,-0.8452932,3.7864482,2.6488645,-0.29245174
412,2026-05-11 16:09:54.703624,0.2116587,-0.18226673,-0.8452932,3.7864482,2.6488645,-0.29245174
413,2026-05-11 16:09:54.706353,0.2116587,-0.18226673,-0.8452932,3.7864482,2.6488645,-0.29245174
414,2026-05-11 16:09:54.708926,0.2116587,-0.18226673,-0.8452932,3.7864482,2.6488645,-0.29245174
415,2026-05-11 16:09:54.711657,0.2116587,-0.18226673,-0.8452932,3.7864482,2.6488645,-0.29245174
416,2026-05-11 16:09:54.714212,0.2116587,-0.18226673,-0.8452932,3.7864482,2.6488645,-0.29245174
417,2026-05-11 16:09:54.717450,0.2116587,-0.18226673,-0.8452932,3.7864482,2.6488645,-0.29245174
418,2026-05-11 16:09:54.720319,0.2116587,-0.18226673,-0.8452932,3.7864482,2.6488645,-0.29245174
419,2026-05-11 16:09:54.722889,0.2116587,-0.18226673,-0.8452932,3.7864482,2.6488645,-0.29245174
420,2026-05-11 16:09:54.725669,0.2116587,-0.18226673,-0.8452932,3.7864482,2.6488645,-0.29245174
421,2026-05-11 16:09:54.728267,0.2116587,-0.18226673,-0.8452932,3.7864482,2.6488645,-0.29245174
422,2026-05-11 16:09:54.730812,0.2116587,-0.18226673,-0.8452932,3.7864482,2.6488645,-0.29245174
423,2026-05-11 16:09:54.734015,0.2116587,-0.18226673,-0.8452932,3.7864482,2.6488645,-0.29245174
424,2026-05-11 16:09:54.736692,0.2116587,-0.18226673,-0.8452932,3.7864482,2.6488645,-0.29245174
425,2026-05-11 16:09:54.739247,0.2116587,-0.18226673,-0.8452932,3.7864482,2.6488645,-0.29245174
426,2026-05-11 16:09:54.742017,0.2116587,-0.18226673,-0.8452932,3.7864482,2.6488645,-0.29245174
427,2026-05-11 16:09:54.744611,0.2116587,-0.18226673,-0.8452932,3.7864482,2.6488645,-0.29245174
428,2026-05-11 16:09:54.747178,0.2116587,-0.18226673,-0.8452932,3.7864482,2.6488645,-0.29245174
429,2026-05-11 16:09:54.750131,0.2116587,-0.18226673,-0.8452932,3.7864482,2.6488645,-0.29245174
430,2026-05-11 16:09:54.752971,0.2116587,-0.18226673,-0.8452932,3.7864482,2.6488645,-0.29245174
431,2026-05-11 16:09:54.755708,0.2116587,-0.18226673,-0.8452932,3.7864482,2.6488645,-0.29245174
432,2026-05-11 16:09:54.758308,0.2116587,-0.18226673,-0.8452932,3.7864482,2.6488645,-0.29245174
433,2026-05-11 16:09:54.761021,0.2116587,-0.18226673,-0.8452932,3.7864482,2.6488645,-0.29245174
434,2026-05-11 16:09:54.763611,0.2116587,-0.18226673,-0.8452932,3.7864482,2.6488645,-0.29245174
435,2026-05-11 16:09:54.766537,0.2116587,-0.18226673,-0.8452932,3.7864482,2.6488645,-0.29245174
436,2026-05-11 16:09:54.769427,0.2116587,-0.18226673,-0.8452932,3.7864482,2.6488645,-0.29245174
437,2026-05-11 16:09:54.772134,0.2116587,-0.18226673,-0.8452932,3.7864482,2.6488645,-0.29245174
438,2026-05-11 16:09:54.774906,0.2116587,-0.18226673,-0.8452932,3.7864482,2.6488645,-0.29245174
439,2026-05-11 16:09:54.777675,0.2116587,-0.18226673,-0.8452932,3.7864482,2.6488645,-0.29245174
440,2026-05-11 16:09:54.780254,0.2116587,-0.18226673,-0.8452932,3.7864482,2.6488645,-0.29245174
441,2026-05-11 16:09:54.783188,0.2116587,-0.18226673,-0.8452932,3.7864482,2.6488645,-0.29245174
442,2026-05-11 16:09:54.786093,0.2116587,-0.18226673,-0.8452932,3.7864482,2.6488645,-0.29245174
443,2026-05-11 16:09:54.788767,0.2116587,-0.18226673,-0.8452932,3.7864482,2.6488645,-0.29245174
444,2026-05-11 16:09:54.791341,0.2116587,-0.18226673,-0.8452932,3.7864482,2.6488645,-0.29245174
445,2026-05-11 16:09:54.794133,0.2116587,-0.18226673,-0.8452932,3.7864482,2.6488645,-0.29245174
446,2026-05-11 16:09:54.796735,0.2116587,-0.18226673,-0.8452932,3.7864482,2.6488645,-0.29245174
447,2026-05-11 16:09:54.799514,0.2116587,-0.18226673,-0.8452932,3.5673003,2.1442897,-0.36163223
448,2026-05-11 16:09:54.802620,0.2116587,-0.18226673,-0.8452932,3.5673003,2.1442897,-0.36163223
449,2026-05-11 16:09:54.805346,0.2116587,-0.18226673,-0.8452932,3.5673003,2.1442897,-0.36163223
450,2026-05-11 16:09:54.807971,0.2116587,-0.18226673,-0.8452932,3.5673003,2.1442897,-0.36163223
451,2026-05-11 16:09:54.810718,0.2116587,-0.18226673,-0.8452932,3.5673003,2.1442897,-0.36163223
452,2026-05-11 16:09:54.813311,0.2116587,-0.18226673,-0.8452932,3.5673003,2.1442897,-0.36163223
453,2026-05-11 16:09:54.816165,0.2116587,-0.18226673,-0.8452932,3.5673003,2.1442897,-0.36163223
454,2026-05-11 16:09:54.819392,0.2116587,-0.18226673,-0.8452932,3.5673003,2.1442897,-0.36163223
455,2026-05-11 16:09:54.822091,0.2116587,-0.18226673,-0.8452932,3.5673003,2.1442897,-0.36163223
456,2026-05-11 16:09:54.824798,0.2116587,-0.18226673,-0.8452932,3.5673003,2.1442897,-0.36163223
457,2026-05-11 16:09:54.827393,0.2116587,-0.18226673,-0.8452932,3.5673003,2.1442897,-0.36163223
458,2026-05-11 16:09:54.830159,0.2116587,-0.18226673,-0.8452932,3.5673003,2.1442897,-0.36163223
459,2026-05-11 16:09:54.832912,0.2116587,-0.18226673,-0.8452932,3.5673003,2.1442897,-0.36163223
460,2026-05-11 16:09:54.836619,0.2116587,-0.18226673,-0.8452932,3.5673003,2.1442897,-0.36163223
461,2026-05-11 16:09:54.839591,0.2116587,-0.18226673,-0.8452932,3.5673003,2.1442897,-0.36163223
462,2026-05-11 16:09:54.842269,0.2116587,-0.18226673,-0.8452932,3.5673003,2.1442897,-0.36163223
463,2026-05-11 16:09:54.844881,0.2116587,-0.18226673,-0.8452932,3.5673003,2.1442897,-0.36163223
464,2026-05-11 16:09:54.847711,0.2116587,-0.18226673,-0.8452932,3.5673003,2.1442897,-0.36163223
465,2026-05-11 16:09:54.850551,0.2116587,-0.18226673,-0.8452932,3.5673003,2.1442897,-0.36163223
466,2026-05-11 16:09:54.853941,0.2116587,-0.18226673,-0.8452932,3.5673003,2.1442897,-0.36163223
467,2026-05-11 16:09:54.856725,0.2116587,-0.18226673,-0.8452932,3.5673003,2.1442897,-0.36163223
468,2026-05-11 16:09:54.859413,0.2116587,-0.18226673,-0.8452932,3.5673003,2.1442897,-0.36163223
469,2026-05-11 16:09:54.862070,0.2116587,-0.18226673,-0.8452932,3.5673003,2.1442897,-0.36163223
470,2026-05-11 16:09:54.864784,0.2116587,-0.18226673,-0.8452932,3.5673003,2.1442897,-0.36163223
471,2026-05-11 16:09:54.867727,0.2116587,-0.18226673,-0.8452932,3.5673003,2.1442897,-0.36163223
472,2026-05-11 16:09:54.870476,0.2116587,-0.18226673,-0.8452932,3.5673003,2.1442897,-0.36163223
473,2026-05-11 16:09:54.873282,0.2116587,-0.18226673,-0.8452932,3.5673003,2.1442897,-0.36163223
474,2026-05-11 16:09:54.875904,0.2116587,-0.18226673,-0.8452932,3.5673003,2.1442897,-0.36163223
475,2026-05-11 16:09:54.878737,0.2116587,-0.18226673,-0.8452932,3.5673003,2.1442897,-0.36163223
476,2026-05-11 16:09:54.881411,0.2116587,-0.18226673,-0.8452932,3.5673003,2.1442897,-0.36163223
477,2026-05-11 16:09:54.884499,0.2116587,-0.18226673,-0.8452932,3.5673003,2.1442897,-0.36163223
478,2026-05-11 16:09:54.887401,0.2116587,-0.18226673,-0.8452932,3.5673003,2.1442897,-0.36163223
479,2026-05-11 16:09:54.890134,0.1797056,-0.14445965,-0.9816426,3.5673003,2.1442897,-0.36163223
480,2026-05-11 16:09:54.892730,0.1797056,-0.14445965,-0.9816426,3.5673003,2.1442897,-0.36163223
481,2026-05-11 16:09:54.895449,0.1797056,-0.14445965,-0.9816426,3.5673003,2.1442897,-0.36163223
482,2026-05-11 16:09:54.898066,0.1797056,-0.14445965,-0.9816426,3.5673003,2.1442897,-0.36163223
483,2026-05-11 16:09:54.901110,0.1797056,-0.14445965,-0.9816426,3.5673003,2.1442897,-0.36163223
484,2026-05-11 16:09:54.903800,0.1797056,-0.14445965,-0.9816426,3.5673003,2.1442897,-0.36163223
485,2026-05-11 16:09:54.906445,0.1797056,-0.14445965,-0.9816426,3.5673003,2.1442897,-0.36163223
486,2026-05-11 16:09:54.909366,0.1797056,-0.14445965,-0.9816426,3.5673003,2.1442897,-0.36163223
487,2026-05-11 16:09:54.912008,0.1797056,-0.14445965,-0.9816426,3.5673003,2.1442897,-0.36163223
488,2026-05-11 16:09:54.914771,0.1797056,-0.14445965,-0.9816426,3.5673003,2.1442897,-0.36163223
489,2026-05-11 16:09:54.917802,0.1797056,-0.14445965,-0.9816426,3.5673003,2.1442897,-0.36163223
490,2026-05-11 16:09:54.920590,0.1797056,-0.14445965,-0.9816426,3.5673003,2.1442897,-0.36163223
491,2026-05-11 16:09:54.923418,0.24483135,-0.09939604,-1.0893928,3.5673003,2.1442897,-0.36163223
492,2026-05-11 16:09:54.926151,0.24483135,-0.09939604,-1.0893928,3.5673003,2.1442897,-0.36163223
493,2026-05-11 16:09:54.928900,0.24483135,-0.09939604,-1.0893928,3.5673003,2.1442897,-0.36163223
494,2026-05-11 16:09:54.931462,0.24483135,-0.09939604,-1.0893928,3.5673003,2.1442897,-0.36163223
495,2026-05-11 16:09:54.934416,0.24483135,-0.09939604,-1.0893928,3.5673003,2.1442897,-0.36163223
496,2026-05-11 16:09:54.937238,0.24483135,-0.09939604,-1.0893928,3.5673003,2.1442897,-0.36163223
497,2026-05-11 16:09:54.939806,0.24483135,-0.09939604,-1.0893928,3.5673003,2.1442897,-0.36163223
498,2026-05-11 16:09:54.942400,0.24483135,-0.09939604,-1.0893928,3.5673003,2.1442897,-0.36163223
499,2026-05-11 16:09:54.945044,0.24483135,-0.09939604,-1.0893928,3.5673003,2.1442897,-0.36163223
500,2026-05-11 16:09:54.947586,0.24483135,-0.09939604,-1.0893928,3.0138564,1.9268217,-0.51175237
501,2026-05-11 16:09:54.950600,0.24483135,-0.09939604,-1.0893928,3.0138564,1.9268217,-0.51175237
502,2026-05-11 16:09:54.953485,0.24483135,-0.09939604,-1.0893928,3.0138564,1.9268217,-0.51175237
503,2026-05-11 16:09:54.956215,0.24483135,-0.09939604,-1.0893928,3.0138564,1.9268217,-0.51175237
504,2026-05-11 16:09:54.958841,0.24483135,-0.09939604,-1.0893928,3.0138564,1.9268217,-0.51175237
505,2026-05-11 16:09:54.961614,0.24483135,-0.09939604,-1.0893928,3.0138564,1.9268217,-0.51175237
506,2026-05-11 16:09:54.964344,0.24483135,-0.09939604,-1.0893928,3.0138564,1.9268217,-0.51175237
507,2026-05-11 16:09:54.967479,0.24483135,-0.09939604,-1.0893928,3.0138564,1.9268217,-0.51175237
508,2026-05-11 16:09:54.970398,0.24483135,-0.09939604,-1.0893928,3.0138564,1.9268217,-0.51175237
509,2026-05-11 16:09:54.973073,0.24483135,-0.09939604,-1.0893928,3.0138564,1.9268217,-0.51175237
510,2026-05-11 16:09:54.975723,0.19574313,-0.124580435,-1.1792151,3.0138564,1.9268217,-0.51175237
511,2026-05-11 16:09:54.978440,0.19574313,-0.124580435,-1.1792151,3.0138564,1.9268217,-0.51175237
512,2026-05-11 16:09:54.981010,0.19574313,-0.124580435,-1.1792151,3.0138564,1.9268217,-0.51175237
513,2026-05-11 16:09:54.984212,0.19574313,-0.124580435,-1.1792151,3.0138564,1.9268217,-0.51175237
514,2026-05-11 16:09:54.986990,0.19574313,-0.124580435,-1.1792151,3.0138564,1.9268217,-0.51175237
515,2026-05-11 16:09:54.989615,0.19574313,-0.124580435,-1.1792151,3.0138564,1.9268217,-0.51175237
516,2026-05-11 16:09:55.017815,-0.37124115,-0.193182,-0.7352258,-3.0115657,-3.387706,0.65270954
517,2026-05-11 16:09:55.024841,-0.37599754,-0.22354963,-0.564911,-3.0115657,-3.387706,0.65270954
518,2026-05-11 16:09:55.030628,-0.37599754,-0.22354963,-0.564911,-3.0115657,-3.387706,0.65270954
519,2026-05-11 16:09:55.033713,-0.37599754,-0.22354963,-0.564911,-3.0115657,-3.387706,0.65270954
520,2026-05-11 16:09:55.036793,-0.37599754,-0.22354963,-0.564911,-3.0115657,-3.387706,0.65270954
521,2026-05-11 16:09:55.039575,-0.37599754,-0.22354963,-0.564911,-3.0115657,-3.387706,0.65270954
522,2026-05-11 16:09:55.042314,-0.37599754,-0.22354963,-0.564911,-3.0115657,-3.387706,0.65270954
523,2026-05-11 16:09:55.044930,-0.37599754,-0.22354963,-0.564911,-3.0115657,-3.387706,0.65270954
524,2026-05-11 16:09:55.047576,-0.37599754,-0.22354963,-0.564911,-3.1571043,-3.6108243,0.86086184
525,2026-05-11 16:09:55.050797,-0.37599754,-0.22354963,-0.564911,-3.1571043,-3.6108243,0.86086184
526,2026-05-11 16:09:55.053753,-0.37599754,-0.22354963,-0.564911,-3.1571043,-3.6108243,0.86086184
527,2026-05-11 16:09:55.056569,-0.37599754,-0.22354963,-0.564911,-3.1571043,-3.6108243,0.86086184
528,2026-05-11 16:09:55.059266,-0.37599754,-0.22354963,-0.564911,-3.1571043,-3.6108243,0.86086184
529,2026-05-11 16:09:55.061925,-0.37599754,-0.22354963,-0.564911,-3.1571043,-3.6108243,0.86086184
530,2026-05-11 16:09:55.064511,-0.37599754,-0.22354963,-0.564911,-3.1571043,-3.6108243,0.86086184
531,2026-05-11 16:09:55.067638,-0.37599754,-0.22354963,-0.564911,-3.1571043,-3.6108243,0.86086184
532,2026-05-11 16:09:55.070589,-0.37599754,-0.22354963,-0.564911,-3.1571043,-3.6108243,0.86086184
533,2026-05-11 16:09:55.073263,-0.37599754,-0.22354963,-0.564911,-3.1571043,-3.6108243,0.86086184
534,2026-05-11 16:09:55.075850,-0.37599754,-0.22354963,-0.564911,-3.1571043,-3.6108243,0.86086184
535,2026-05-11 16:09:55.078740,-0.37599754,-0.22354963,-0.564911,-3.1571043,-3.6108243,0.86086184
536,2026-05-11 16:09:55.081600,-0.37599754,-0.22354963,-0.564911,-3.1571043,-3.6108243,0.86086184
537,2026-05-11 16:09:55.084630,-0.37599754,-0.22354963,-0.564911,-3.1571043,-3.6108243,0.86086184
538,2026-05-11 16:09:55.087250,-0.37599754,-0.22354963,-0.564911,-3.1571043,-3.6108243,0.86086184
539,2026-05-11 16:09:55.089995,-0.37599754,-0.22354963,-0.564911,-3.1571043,-3.6108243,0.86086184
540,2026-05-11 16:09:55.092578,-0.37599754,-0.22354963,-0.564911,-3.1571043,-3.6108243,0.86086184
541,2026-05-11 16:09:55.095241,-0.37599754,-0.22354963,-0.564911,-3.1571043,-3.6108243,0.86086184
542,2026-05-11 16:09:55.097788,-0.37599754,-0.22354963,-0.564911,-3.1571043,-3.6108243,0.86086184
543,2026-05-11 16:09:55.100864,-0.37599754,-0.22354963,-0.564911,-3.1571043,-3.6108243,0.86086184
544,2026-05-11 16:09:55.103572,-0.37599754,-0.22354963,-0.564911,-3.1571043,-3.6108243,0.86086184
545,2026-05-11 16:09:55.106176,-0.37599754,-0.22354963,-0.564911,-3.1571043,-3.6108243,0.86086184
546,2026-05-11 16:09:55.108866,-0.37599754,-0.22354963,-0.564911,-3.1571043,-3.6108243,0.86086184
547,2026-05-11 16:09:55.111557,-0.37599754,-0.22354963,-0.564911,-3.1571043,-3.6108243,0.86086184
548,2026-05-11 16:09:55.114313,-0.37599754,-0.22354963,-0.564911,-3.1571043,-3.6108243,0.86086184
549,2026-05-11 16:09:55.117267,-0.37599754,-0.22354963,-0.564911,-3.1571043,-3.6108243,0.86086184
550,2026-05-11 16:09:55.120004,-0.37599754,-0.22354963,-0.564911,-3.1571043,-3.6108243,0.86086184
551,2026-05-11 16:09:55.122570,-0.37599754,-0.22354963,-0.564911,-3.1571043,-3.6108243,0.86086184
552,2026-05-11 16:09:55.125135,-0.37599754,-0.22354963,-0.564911,-3.1571043,-3.6108243,0.86086184
553,2026-05-11 16:09:55.127902,-0.37599754,-0.22354963,-0.564911,-3.1571043,-3.6108243,0.86086184
554,2026-05-11 16:09:55.130500,-0.37599754,-0.22354963,-0.564911,-3.1571043,-3.6108243,0.86086184
555,2026-05-11 16:09:55.133505,-0.37599754,-0.22354963,-0.564911,-3.1571043,-3.6108243,0.86086184
556,2026-05-11 16:09:55.136333,-0.37599754,-0.22354963,-0.564911,-3.1571043,-3.6108243,0.86086184
557,2026-05-11 16:09:55.139168,-0.37599754,-0.22354963,-0.564911,-3.1571043,-3.6108243,0.86086184
558,2026-05-11 16:09:55.141786,-0.37599754,-0.22354963,-0.564911,-3.1571043,-3.6108243,0.86086184
559,2026-05-11 16:09:55.144630,-0.09713981,-0.22025676,-0.24635585,-2.78692,-4.4031167,1.2638801
560,2026-05-11 16:09:55.147373,-0.09713981,-0.22025676,-0.24635585,-2.78692,-4.4031167,1.2638801
561,2026-05-11 16:09:55.150429,-0.09713981,-0.22025676,-0.24635585,-2.78692,-4.4031167,1.2638801
562,2026-05-11 16:09:55.153353,-0.09713981,-0.22025676,-0.24635585,-2.78692,-4.4031167,1.2638801
563,2026-05-11 16:09:55.155963,-0.09713981,-0.22025676,-0.24635585,-2.78692,-4.4031167,1.2638801
564,2026-05-11 16:09:55.158558,-0.09713981,-0.22025676,-0.24635585,-2.78692,-4.4031167,1.2638801
565,2026-05-11 16:09:55.161350,-0.09713981,-0.22025676,-0.24635585,-2.78692,-4.4031167,1.2638801
566,2026-05-11 16:09:55.163961,-0.09713981,-0.22025676,-0.24635585,-2.78692,-4.4031167,1.2638801
567,2026-05-11 16:09:55.166931,-0.09713981,-0.22025676,-0.24635585,-2.78692,-4.4031167,1.2638801
568,2026-05-11 16:09:55.169738,-0.09713981,-0.22025676,-0.24635585,-2.78692,-4.4031167,1.2638801
569,2026-05-11 16:09:55.172349,-0.09713981,-0.22025676,-0.24635585,-2.78692,-4.4031167,1.2638801
570,2026-05-11 16:09:55.174939,-0.09713981,-0.22025676,-0.24635585,-2.78692,-4.4031167,1.2638801
571,2026-05-11 16:09:55.177496,-0.09713981,-0.22025676,-0.24635585,-2.78692,-4.4031167,1.2638801
572,2026-05-11 16:09:55.180127,-0.09713981,-0.22025676,-0.24635585,-2.78692,-4.4031167,1.2638801
573,2026-05-11 16:09:55.182799,-0.09713981,-0.22025676,-0.24635585,-2.78692,-4.4031167,1.2638801
574,2026-05-11 16:09:55.186287,0.0042075627,-0.21050009,-0.18165694,-2.78692,-4.4031167,1.2638801
575,2026-05-11 16:09:55.188982,0.0042075627,-0.21050009,-0.18165694,-2.78692,-4.4031167,1.2638801
576,2026-05-11 16:09:55.191784,0.0042075627,-0.21050009,-0.18165694,-2.78692,-4.4031167,1.2638801
577,2026-05-11 16:09:55.194391,0.0042075627,-0.21050009,-0.18165694,-2.78692,-4.4031167,1.2638801
578,2026-05-11 16:09:55.197250,0.0042075627,-0.21050009,-0.18165694,-2.78692,-4.4031167,1.2638801
579,2026-05-11 16:09:55.200472,0.08268775,-0.21074401,-0.14189851,-2.4561365,-4.7723846,1.2473868
580,2026-05-11 16:09:55.203448,0.08268775,-0.21074401,-0.14189851,-2.4561365,-4.7723846,1.2473868
581,2026-05-11 16:09:55.206149,0.08268775,-0.21074401,-0.14189851,-2.4561365,-4.7723846,1.2473868
582,2026-05-11 16:09:55.208919,0.08268775,-0.21074401,-0.14189851,-2.4561365,-4.7723846,1.2473868
583,2026-05-11 16:09:55.211549,0.08268775,-0.21074401,-0.14189851,-2.4561365,-4.7723846,1.2473868
584,2026-05-11 16:09:55.214267,0.08268775,-0.21074401,-0.14189851,-2.4561365,-4.7723846,1.2473868
585,2026-05-11 16:09:55.217390,0.09482261,-0.2128173,-0.12580003,-2.3012822,-4.9452596,1.2660183
586,2026-05-11 16:09:55.220168,0.09482261,-0.2128173,-0.12580003,-2.3012822,-4.9452596,1.2660183
587,2026-05-11 16:09:55.222777,0.09482261,-0.2128173,-0.12580003,-2.3012822,-4.9452596,1.2660183
588,2026-05-11 16:09:55.225384,0.09482261,-0.2128173,-0.12580003,-2.3012822,-4.9452596,1.2660183
589,2026-05-11 16:09:55.227989,0.09482261,-0.2128173,-0.12580003,-2.3012822,-4.9452596,1.2660183
590,2026-05-11 16:09:55.230729,0.09482261,-0.2128173,-0.12580003,-2.1940753,-5.106986,1.416902
591,2026-05-11 16:09:55.233665,0.16903426,-0.24891695,-0.12415359,-2.1940753,-5.106986,1.416902
592,2026-05-11 16:09:55.237207,0.16903426,-0.24891695,-0.12415359,-2.1940753,-5.106986,1.416902
593,2026-05-11 16:09:55.239972,0.16903426,-0.24891695,-0.12415359,-2.1940753,-5.106986,1.416902
594,2026-05-11 16:09:55.242760,0.16903426,-0.24891695,-0.12415359,-2.1940753,-5.106986,1.416902
595,2026-05-11 16:09:55.245368,0.16903426,-0.24891695,-0.12415359,-2.1940753,-5.106986,1.416902
596,2026-05-11 16:09:55.247937,0.16903426,-0.24891695,-0.12415359,-2.1940753,-5.106986,1.416902
597,2026-05-11 16:09:55.251006,0.16903426,-0.24891695,-0.12415359,-2.1940753,-5.106986,1.416902
598,2026-05-11 16:09:55.254400,0.16903426,-0.24891695,-0.12415359,-2.1940753,-5.106986,1.416902
599,2026-05-11 16:09:55.257171,0.18330337,-0.28526056,-0.15433827,-2.4425447,-4.7917795,1.630552
600,2026-05-11 16:09:55.259774,0.18330337,-0.28526056,-0.15433827,-2.4425447,-4.7917795,1.630552
601,2026-05-11 16:09:55.262435,0.18330337,-0.28526056,-0.15433827,-2.4425447,-4.7917795,1.630552
602,2026-05-11 16:09:55.265277,0.18330337,-0.28526056,-0.15433827,-2.4425447,-4.7917795,1.630552
603,2026-05-11 16:09:55.268087,0.18330337,-0.28526056,-0.15433827,-2.4425447,-4.7917795,1.630552
604,2026-05-11 16:09:55.271587,0.18330337,-0.28526056,-0.15433827,-2.4425447,-4.7917795,1.630552
605,2026-05-11 16:09:55.274602,0.22726935,-0.32953143,-0.16940013,-2.8678596,-4.236503,1.8909334
606,2026-05-11 16:09:55.277354,0.22726935,-0.32953143,-0.16940013,-3.6987891,-3.4106133,2.2562308
607,2026-05-11 16:09:55.279933,0.22726935,-0.32953143,-0.16940013,-3.6987891,-3.4106133,2.2562308
608,2026-05-11 16:09:55.282667,0.22726935,-0.32953143,-0.16940013,-3.6987891,-3.4106133,2.2562308
609,2026-05-11 16:09:55.286017,0.42874455,-0.4106337,-0.14104481,-3.6987891,-3.4106133,2.2562308
610,2026-05-11 16:09:55.289073,0.52082306,-0.41209725,-0.0807974,-3.9377902,-3.2340734,2.3328943
611,2026-05-11 16:09:55.291853,0.52082306,-0.41209725,-0.0807974,-3.9377902,-3.2340734,2.3328943
612,2026-05-11 16:09:55.294582,0.52082306,-0.41209725,-0.0807974,-3.9377902,-3.2340734,2.3328943
613,2026-05-11 16:09:55.297192,0.52082306,-0.41209725,-0.0807974,-3.9377902,-3.2340734,2.3328943
614,2026-05-11 16:09:55.300164,0.52082306,-0.41209725,-0.0807974,-3.9377902,-3.2340734,2.3328943
615,2026-05-11 16:09:55.303256,0.52082306,-0.41209725,-0.0807974,-3.9377902,-3.2340734,2.3328943
616,2026-05-11 16:09:55.305952,0.52082306,-0.41209725,-0.0807974,-3.9377902,-3.2340734,2.3328943
617,2026-05-11 16:09:55.308695,0.52082306,-0.41209725,-0.0807974,-3.9377902,-3.2340734,2.3328943
618,2026-05-11 16:09:55.311347,0.52082306,-0.41209725,-0.0807974,-3.9377902,-3.2340734,2.3328943
619,2026-05-11 16:09:55.314100,0.52082306,-0.41209725,-0.0807974,-3.9377902,-3.2340734,2.3328943
620,2026-05-11 16:09:55.317403,0.52082306,-0.41209725,-0.0807974,-3.9377902,-3.2340734,2.3328943
621,2026-05-11 16:09:55.320190,0.52082306,-0.41209725,-0.0807974,-3.9377902,-3.2340734,2.3328943
622,2026-05-11 16:09:55.322856,0.52082306,-0.41209725,-0.0807974,-3.9377902,-3.2340734,2.3328943
623,2026-05-11 16:09:55.325455,0.52082306,-0.41209725,-0.0807974,-3.9377902,-3.2340734,2.3328943
624,2026-05-11 16:09:55.328010,0.52082306,-0.41209725,-0.0807974,-3.9377902,-3.2340734,2.3328943
625,2026-05-11 16:09:55.330738,0.52082306,-0.41209725,-0.0807974,-3.9377902,-3.2340734,2.3328943
626,2026-05-11 16:09:55.333717,0.52082306,-0.41209725,-0.0807974,-3.9377902,-3.2340734,2.3328943
627,2026-05-11 16:09:55.336544,0.52082306,-0.41209725,-0.0807974,-4.241543,-3.3988543,2.2672265
628,2026-05-11 16:09:55.339278,0.52082306,-0.41209725,-0.0807974,-4.241543,-3.3988543,2.2672265
629,2026-05-11 16:09:55.341903,0.52082306,-0.41209725,-0.0807974,-4.241543,-3.3988543,2.2672265
630,2026-05-11 16:09:55.344597,0.52082306,-0.41209725,-0.0807974,-4.241543,-3.3988543,2.2672265
631,2026-05-11 16:09:55.347153,0.52082306,-0.41209725,-0.0807974,-4.241543,-3.3988543,2.2672265
632,2026-05-11 16:09:55.350256,0.52082306,-0.41209725,-0.0807974,-4.241543,-3.3988543,2.2672265
633,2026-05-11 16:09:55.353210,0.7096146,-0.42191488,0.16482669,-4.241543,-3.3988543,2.2672265
634,2026-05-11 16:09:55.355838,0.7096146,-0.42191488,0.16482669,-4.241543,-3.3988543,2.2672265
635,2026-05-11 16:09:55.358417,0.7096146,-0.42191488,0.16482669,-4.241543,-3.3988543,2.2672265
636,2026-05-11 16:09:55.361084,0.7096146,-0.42191488,0.16482669,-4.241543,-3.3988543,2.2672265
637,2026-05-11 16:09:55.363846,0.7096146,-0.42191488,0.16482669,-4.241543,-3.3988543,2.2672265
638,2026-05-11 16:09:55.366709,0.7096146,-0.42191488,0.16482669,-4.241543,-3.3988543,2.2672265
639,2026-05-11 16:09:55.369659,0.7096146,-0.42191488,0.16482669,-4.241543,-3.3988543,2.2672265
640,2026-05-11 16:09:55.372369,0.7096146,-0.42191488,0.16482669,-4.241543,-3.3988543,2.2672265
641,2026-05-11 16:09:55.374981,0.7096146,-0.42191488,0.16482669,-4.241543,-3.3988543,2.2672265
642,2026-05-11 16:09:55.377878,0.7096146,-0.42191488,0.16482669,-4.241543,-3.3988543,2.2672265
643,2026-05-11 16:09:55.380471,0.7096146,-0.42191488,0.16482669,-4.241543,-3.3988543,2.2672265
644,2026-05-11 16:09:55.383344,0.7096146,-0.42191488,0.16482669,-4.241543,-3.3988543,2.2672265
645,2026-05-11 16:09:55.386360,0.7096146,-0.42191488,0.16482669,-4.241543,-3.3988543,2.2672265
646,2026-05-11 16:09:55.389147,0.7096146,-0.42191488,0.16482669,-4.241543,-3.3988543,2.2672265
647,2026-05-11 16:09:55.391863,0.7096146,-0.42191488,0.16482669,-4.241543,-3.3988543,2.2672265
648,2026-05-11 16:09:55.394599,0.7096146,-0.42191488,0.16482669,-4.241543,-3.3988543,2.2672265
649,2026-05-11 16:09:55.397295,0.7096146,-0.42191488,0.16482669,-4.241543,-3.3988543,2.2672265
650,2026-05-11 16:09:55.400255,0.7096146,-0.42191488,0.16482669,-4.241543,-3.3988543,2.2672265
651,2026-05-11 16:09:55.403219,0.7096146,-0.42191488,0.16482669,-4.241543,-3.3988543,2.2672265
652,2026-05-11 16:09:55.405806,0.7096146,-0.42191488,0.16482669,-4.241543,-3.3988543,2.2672265
653,2026-05-11 16:09:55.408596,0.7096146,-0.42191488,0.16482669,-4.241543,-3.3988543,2.2672265
654,2026-05-11 16:09:55.411215,0.7096146,-0.42191488,0.16482669,-4.241543,-3.3988543,2.2672265
655,2026-05-11 16:09:55.413794,0.7096146,-0.42191488,0.16482669,-4.241543,-3.3988543,2.2672265
656,2026-05-11 16:09:55.416703,0.7096146,-0.42191488,0.16482669,-4.241543,-3.3988543,2.2672265
657,2026-05-11 16:09:55.419354,0.7096146,-0.42191488,0.16482669,-4.241543,-3.3988543,2.2672265
658,2026-05-11 16:09:55.421928,0.7096146,-0.42191488,0.16482669,-4.241543,-3.3988543,2.2672265
659,2026-05-11 16:09:55.424701,0.7096146,-0.42191488,0.16482669,-4.241543,-3.3988543,2.2672265
660,2026-05-11 16:09:55.427296,0.7096146,-0.42191488,0.16482669,-4.241543,-3.3988543,2.2672265
661,2026-05-11 16:09:55.429890,0.7096146,-0.42191488,0.16482669,-4.241543,-3.3988543,2.2672265
662,2026-05-11 16:09:55.432881,0.8073032,-0.430269,0.34434935,-3.953978,-4.3456955,2.120466
663,2026-05-11 16:09:55.435880,0.8073032,-0.430269,0.34434935,-3.4910948,-5.3100986,2.1003075
664,2026-05-11 16:09:55.438592,0.8073032,-0.430269,0.34434935,-3.4910948,-5.3100986,2.1003075
665,2026-05-11 16:09:55.441196,0.8073032,-0.430269,0.34434935,-3.4910948,-5.3100986,2.1003075
666,2026-05-11 16:09:55.443736,0.8073032,-0.430269,0.34434935,-3.4910948,-5.3100986,2.1003075
667,2026-05-11 16:09:55.446404,0.8073032,-0.430269,0.34434935,-3.4910948,-5.3100986,2.1003075
668,2026-05-11 16:09:55.449093,0.9596901,-0.34526405,0.47124702,-3.4910948,-5.3100986,2.1003075
669,2026-05-11 16:09:55.452296,0.9596901,-0.34526405,0.47124702,-3.4910948,-5.3100986,2.1003075
670,2026-05-11 16:09:55.455001,0.9596901,-0.34526405,0.47124702,-3.4910948,-5.3100986,2.1003075
671,2026-05-11 16:09:55.457676,0.9596901,-0.34526405,0.47124702,-3.4910948,-5.3100986,2.1003075
672,2026-05-11 16:09:55.460401,1.3650187,-0.27611366,0.54216576,-3.4910948,-5.3100986,2.1003075
673,2026-05-11 16:09:55.462968,1.3650187,-0.27611366,0.54216576,-3.4910948,-5.3100986,2.1003075
674,2026-05-11 16:09:55.465560,1.3650187,-0.27611366,0.54216576,-3.4910948,-5.3100986,2.1003075
675,2026-05-11 16:09:55.468579,1.3650187,-0.27611366,0.54216576,-3.4910948,-5.3100986,2.1003075
676,2026-05-11 16:09:55.471329,1.3650187,-0.27611366,0.54216576,-3.4910948,-5.3100986,2.1003075
677,2026-05-11 16:09:55.474073,1.3650187,-0.27611366,0.54216576,-3.4910948,-5.3100986,2.1003075
678,2026-05-11 16:09:55.476889,1.3650187,-0.27611366,0.54216576,-3.4910948,-5.3100986,2.1003075
679,2026-05-11 16:09:55.479715,1.3650187,-0.27611366,0.54216576,-3.4910948,-5.3100986,2.1003075
680,2026-05-11 16:09:55.482500,1.3650187,-0.27611366,0.54216576,-3.0233247,-6.3583436,1.9472857
681,2026-05-11 16:09:55.485673,1.3650187,-0.27611366,0.54216576,-3.0233247,-6.3583436,1.9472857
682,2026-05-11 16:09:55.488544,1.3650187,-0.27611366,0.54216576,-3.0233247,-6.3583436,1.9472857
683,2026-05-11 16:09:55.491294,1.3650187,-0.27611366,0.54216576,-3.0233247,-6.3583436,1.9472857
684,2026-05-11 16:09:55.493920,1.4200219,-0.21922012,0.5810095,-3.0233247,-6.3583436,1.9472857
685,2026-05-11 16:09:55.496509,1.4200219,-0.21922012,0.5810095,-3.0233247,-6.3583436,1.9472857
686,2026-05-11 16:09:55.499169,1.4200219,-0.21922012,0.5810095,-3.0233247,-6.3583436,1.9472857
687,2026-05-11 16:09:55.502029,1.4200219,-0.21922012,0.5810095,-3.0233247,-6.3583436,1.9472857
688,2026-05-11 16:09:55.505317,1.4200219,-0.21922012,0.5810095,-3.0233247,-6.3583436,1.9472857
689,2026-05-11 16:09:55.507934,1.4200219,-0.21922012,0.5810095,-3.0233247,-6.3583436,1.9472857
690,2026-05-11 16:09:55.510607,1.4200219,-0.21922012,0.5810095,-3.0233247,-6.3583436,1.9472857
691,2026-05-11 16:09:55.513157,1.4200219,-0.21922012,0.5810095,-3.0233247,-6.3583436,1.9472857
692,2026-05-11 16:09:55.515718,1.4200219,-0.21922012,0.5810095,-3.0233247,-6.3583436,1.9472857
693,2026-05-11 16:09:55.518374,1.4200219,-0.21922012,0.5810095,-3.0233247,-6.3583436,1.9472857
694,2026-05-11 16:09:55.521941,1.4200219,-0.21922012,0.5810095,-3.0233247,-6.3583436,1.9472857
695,2026-05-11 16:09:55.524766,1.4200219,-0.21922012,0.5810095,-3.0233247,-6.3583436,1.9472857
696,2026-05-11 16:09:55.527473,1.4200219,-0.21922012,0.5810095,-2.8266263,-7.241655,1.6242907
697,2026-05-11 16:09:55.530059,1.4200219,-0.21922012,0.5810095,-2.8266263,-7.241655,1.6242907
698,2026-05-11 16:09:55.532686,1.4200219,-0.21922012,0.5810095,-2.8266263,-7.241655,1.6242907
699,2026-05-11 16:09:55.535754,1.4200219,-0.21922012,0.5810095,-2.8266263,-7.241655,1.6242907
700,2026-05-11 16:09:55.538379,1.4200219,-0.21922012,0.5810095,-2.8266263,-7.241655,1.6242907
701,2026-05-11 16:09:55.540988,1.4200219,-0.21922012,0.5810095,-2.8266263,-7.241655,1.6242907
702,2026-05-11 16:09:55.543746,1.4200219,-0.21922012,0.5810095,-2.8266263,-7.241655,1.6242907
703,2026-05-11 16:09:55.546365,1.4200219,-0.21922012,0.5810095,-2.8266263,-7.241655,1.6242907
704,2026-05-11 16:09:55.548904,1.4200219,-0.21922012,0.5810095,-2.8266263,-7.241655,1.6242907
705,2026-05-11 16:09:55.552009,1.4200219,-0.21922012,0.5810095,-2.8266263,-7.241655,1.6242907
706,2026-05-11 16:09:55.554671,1.4200219,-0.21922012,0.5810095,-2.8266263,-7.241655,1.6242907
707,2026-05-11 16:09:55.557330,1.3796537,-0.2731257,0.54326344,-2.8266263,-7.241655,1.6242907
708,2026-05-11 16:09:55.559977,1.3796537,-0.2731257,0.54326344,-2.8266263,-7.241655,1.6242907
709,2026-05-11 16:09:55.562497,1.3796537,-0.2731257,0.54326344,-2.8266263,-7.241655,1.6242907
710,2026-05-11 16:09:55.565237,1.3796537,-0.2731257,0.54326344,-2.8266263,-7.241655,1.6242907
711,2026-05-11 16:09:55.568269,1.3796537,-0.2731257,0.54326344,-2.8266263,-7.241655,1.6242907
712,2026-05-11 16:09:55.571013,1.3796537,-0.2731257,0.54326344,-2.8266263,-7.241655,1.6242907
713,2026-05-11 16:09:55.573706,1.3796537,-0.2731257,0.54326344,-2.8266263,-7.241655,1.6242907
714,2026-05-11 16:09:55.576298,1.3796537,-0.2731257,0.54326344,-2.8266263,-7.241655,1.6242907
715,2026-05-11 16:09:55.579026,1.3796537,-0.2731257,0.54326344,-2.8266263,-7.241655,1.6242907
716,2026-05-11 16:09:55.581711,1.3796537,-0.2731257,0.54326344,-2.8266263,-7.241655,1.6242907
717,2026-05-11 16:09:55.584831,1.3796537,-0.2731257,0.54326344,-2.8266263,-7.241655,1.6242907
718,2026-05-11 16:09:55.587535,1.3796537,-0.2731257,0.54326344,-2.8266263,-7.241655,1.6242907
719,2026-05-11 16:09:55.590180,1.3796537,-0.2731257,0.54326344,-2.8266263,-7.241655,1.6242907
720,2026-05-11 16:09:55.592761,1.3796537,-0.2731257,0.54326344,-2.8266263,-7.241655,1.6242907
721,2026-05-11 16:09:55.595455,1.3796537,-0.2731257,0.54326344,-2.8266263,-7.241655,1.6242907
722,2026-05-11 16:09:55.598021,1.3796537,-0.2731257,0.54326344,-2.8266263,-7.241655,1.6242907
723,2026-05-11 16:09:55.601032,1.3796537,-0.2731257,0.54326344,-2.8266263,-7.241655,1.6242907
724,2026-05-11 16:09:55.603781,1.3796537,-0.2731257,0.54326344,-2.8266263,-7.241655,1.6242907
725,2026-05-11 16:09:55.606372,1.3796537,-0.2731257,0.54326344,-2.8266263,-7.241655,1.6242907
726,2026-05-11 16:09:55.609233,1.3796537,-0.2731257,0.54326344,-2.8266263,-7.241655,1.6242907
727,2026-05-11 16:09:55.612102,1.7449188,-0.3816686,1.2946486,-6.411031,-5.3368244,2.1342103
728,2026-05-11 16:09:55.614800,1.7449188,-0.3816686,1.2946486,-6.411031,-5.3368244,2.1342103
729,2026-05-11 16:09:55.617832,1.7449188,-0.3816686,1.2946486,-6.411031,-5.3368244,2.1342103
730,2026-05-11 16:09:55.620591,1.7449188,-0.3816686,1.2946486,-6.411031,-5.3368244,2.1342103
731,2026-05-11 16:09:55.623171,1.7449188,-0.3816686,1.2946486,-6.411031,-5.3368244,2.1342103
732,2026-05-11 16:09:55.626027,1.7449188,-0.3816686,1.2946486,-6.411031,-5.3368244,2.1342103
733,2026-05-11 16:09:55.628786,1.7449188,-0.3816686,1.2946486,-6.411031,-5.3368244,2.1342103
734,2026-05-11 16:09:55.631413,1.7449188,-0.3816686,1.2946486,-6.411031,-5.3368244,2.1342103
735,2026-05-11 16:09:55.634533,1.7449188,-0.3816686,1.2946486,-6.411031,-5.3368244,2.1342103
736,2026-05-11 16:09:55.637522,1.7449188,-0.3816686,1.2946486,-6.9217143,-4.012163,1.8784106
737,2026-05-11 16:09:55.640100,1.7449188,-0.3816686,1.2946486,-6.9217143,-4.012163,1.8784106
738,2026-05-11 16:09:55.642996,1.8070567,-0.32410428,1.8529739,-6.9217143,-4.012163,1.8784106
739,2026-05-11 16:09:55.645677,1.8070567,-0.32410428,1.8529739,-6.9217143,-4.012163,1.8784106
740,2026-05-11 16:09:55.648262,1.8070567,-0.32410428,1.8529739,-6.9217143,-4.012163,1.8784106
741,2026-05-11 16:09:55.651326,1.8070567,-0.32410428,1.8529739,-6.9217143,-4.012163,1.8784106
742,2026-05-11 16:09:55.654152,1.8070567,-0.32410428,1.8529739,-6.9217143,-4.012163,1.8784106
743,2026-05-11 16:09:55.656763,1.8070567,-0.32410428,1.8529739,-6.9217143,-4.012163,1.8784106
744,2026-05-11 16:09:55.659467,1.8070567,-0.32410428,1.8529739,-6.9217143,-4.012163,1.8784106
745,2026-05-11 16:09:55.662188,1.8070567,-0.32410428,1.8529739,-6.9217143,-4.012163,1.8784106
746,2026-05-11 16:09:55.664778,1.8070567,-0.32410428,1.8529739,-6.9217143,-4.012163,1.8784106
747,2026-05-11 16:09:55.667853,1.8070567,-0.32410428,1.8529739,-6.9217143,-4.012163,1.8784106
748,2026-05-11 16:09:55.670808,1.8070567,-0.32410428,1.8529739,-6.7233357,-3.6731327,1.6371188
749,2026-05-11 16:09:55.673441,1.8070567,-0.32410428,1.8529739,-6.7233357,-3.6731327,1.6371188
750,2026-05-11 16:09:55.676010,1.8070567,-0.32410428,1.8529739,-6.7233357,-3.6731327,1.6371188
751,2026-05-11 16:09:55.678596,1.8070567,-0.32410428,1.8529739,-6.7233357,-3.6731327,1.6371188
752,2026-05-11 16:09:55.681118,1.8070567,-0.32410428,1.8529739,-6.7233357,-3.6731327,1.6371188
753,2026-05-11 16:09:55.684115,1.8070567,-0.32410428,1.8529739,-6.7233357,-3.6731327,1.6371188
754,2026-05-11 16:09:55.686858,1.8070567,-0.32410428,1.8529739,-6.7233357,-3.6731327,1.6371188
755,2026-05-11 16:09:55.689414,1.8070567,-0.32410428,1.8529739,-6.7233357,-3.6731327,1.6371188
756,2026-05-11 16:09:55.691960,1.8070567,-0.32410428,1.8529739,-6.7233357,-3.6731327,1.6371188
757,2026-05-11 16:09:55.694796,1.8070567,-0.32410428,1.8529739,-6.7233357,-3.6731327,1.6371188
758,2026-05-11 16:09:55.697394,1.8070567,-0.32410428,1.8529739,-6.7233357,-3.6731327,1.6371188
759,2026-05-11 16:09:55.700237,1.8070567,-0.32410428,1.8529739,-6.7233357,-3.6731327,1.6371188
760,2026-05-11 16:09:55.703164,1.8070567,-0.32410428,1.8529739,-6.7233357,-3.6731327,1.6371188
761,2026-05-11 16:09:55.705869,1.7567489,-0.42807376,2.1095743,-6.7233357,-3.6731327,1.6371188
762,2026-05-11 16:09:55.708673,1.7567489,-0.42807376,2.1095743,-6.7233357,-3.6731327,1.6371188
763,2026-05-11 16:09:55.711380,1.7567489,-0.42807376,2.1095743,-6.7233357,-3.6731327,1.6371188
764,2026-05-11 16:09:55.714081,1.7567489,-0.42807376,2.1095743,-6.7233357,-3.6731327,1.6371188
765,2026-05-11 16:09:55.717060,1.7567489,-0.42807376,2.1095743,-6.7233357,-3.6731327,1.6371188
766,2026-05-11 16:09:55.719813,1.7567489,-0.42807376,2.1095743,-6.7233357,-3.6731327,1.6371188
767,2026-05-11 16:09:55.722548,1.2361088,-0.4370377,2.33288,-5.187926,-3.5500433,1.3579534
768,2026-05-11 16:09:55.725352,1.2361088,-0.4370377,2.33288,-4.052327,-3.8733437,1.5318973
769,2026-05-11 16:09:55.728109,1.416729,-0.29605386,2.0564613,-2.8141034,-4.464967,1.6650659
770,2026-05-11 16:09:55.730928,1.416729,-0.29605386,2.0564613,-2.8141034,-4.464967,1.6650659
771,2026-05-11 16:09:55.734062,1.416729,-0.29605386,2.0564613,-2.8141034,-4.464967,1.6650659
772,2026-05-11 16:09:55.736891,1.416729,-0.29605386,2.0564613,-2.8141034,-4.464967,1.6650659
773,2026-05-11 16:09:55.739491,1.416729,-0.29605386,2.0564613,-2.8141034,-4.464967,1.6650659
774,2026-05-11 16:09:55.742253,1.416729,-0.29605386,2.0564613,-2.8141034,-4.464967,1.6650659
775,2026-05-11 16:09:55.744985,1.416729,-0.29605386,2.0564613,-2.8141034,-4.464967,1.6650659
776,2026-05-11 16:09:55.747718,1.416729,-0.29605386,2.0564613,-2.8141034,-4.464967,1.6650659
777,2026-05-11 16:09:55.750695,1.416729,-0.29605386,2.0564613,-2.8141034,-4.464967,1.6650659
778,2026-05-11 16:09:55.753511,1.416729,-0.29605386,2.0564613,-2.8141034,-4.464967,1.6650659
779,2026-05-11 16:09:55.756161,1.416729,-0.29605386,2.0564613,-2.8141034,-4.464967,1.6650659
780,2026-05-11 16:09:55.758745,1.416729,-0.29605386,2.0564613,-2.8141034,-4.464967,1.6650659
781,2026-05-11 16:09:55.761331,1.416729,-0.29605386,2.0564613,-2.8141034,-4.464967,1.6650659
782,2026-05-11 16:09:55.763883,1.416729,-0.29605386,2.0564613,-2.8141034,-4.464967,1.6650659
783,2026-05-11 16:09:55.767004,1.416729,-0.29605386,2.0564613,-2.8141034,-4.464967,1.6650659
784,2026-05-11 16:09:55.769756,1.416729,-0.29605386,2.0564613,-2.8141034,-4.464967,1.6650659
785,2026-05-11 16:09:55.772586,1.416729,-0.29605386,2.0564613,-2.8141034,-4.464967,1.6650659
786,2026-05-11 16:09:55.775289,1.4656343,-0.19769447,1.7730912,-2.8141034,-4.464967,1.6650659
787,2026-05-11 16:09:55.777922,1.4656343,-0.19769447,1.7730912,-2.8141034,-4.464967,1.6650659
788,2026-05-11 16:09:55.780509,1.4656343,-0.19769447,1.7730912,-2.8141034,-4.464967,1.6650659
789,2026-05-11 16:09:55.783823,1.4656343,-0.19769447,1.7730912,-2.8141034,-4.464967,1.6650659
790,2026-05-11 16:09:55.786826,1.4656343,-0.19769447,1.7730912,-2.8141034,-4.464967,1.6650659
791,2026-05-11 16:09:55.789522,1.4656343,-0.19769447,1.7730912,-2.8141034,-4.464967,1.6650659
792,2026-05-11 16:09:55.792286,1.4656343,-0.19769447,1.7730912,-2.8141034,-4.464967,1.6650659
793,2026-05-11 16:09:55.794945,1.4656343,-0.19769447,1.7730912,-2.8141034,-4.464967,1.6650659
794,2026-05-11 16:09:55.797680,1.4656343,-0.19769447,1.7730912,-2.2492058,-4.9438853,1.5932893
795,2026-05-11 16:09:55.800755,1.4656343,-0.19769447,1.7730912,-2.2492058,-4.9438853,1.5932893
796,2026-05-11 16:09:55.803582,1.4656343,-0.19769447,1.7730912,-2.2492058,-4.9438853,1.5932893
797,2026-05-11 16:09:55.806313,1.4656343,-0.19769447,1.7730912,-2.324495,-5.1034737,1.5540411
798,2026-05-11 16:09:55.808887,1.4656343,-0.19769447,1.7730912,-2.324495,-5.1034737,1.5540411
799,2026-05-11 16:09:55.811644,1.4656343,-0.19769447,1.7730912,-2.324495,-5.1034737,1.5540411
800,2026-05-11 16:09:55.814262,1.5471635,-0.115250625,1.5238694,-2.324495,-5.1034737,1.5540411
801,2026-05-11 16:09:55.816987,1.5471635,-0.115250625,1.5238694,-2.324495,-5.1034737,1.5540411
802,2026-05-11 16:09:55.820386,1.5471635,-0.115250625,1.5238694,-2.324495,-5.1034737,1.5540411
803,2026-05-11 16:09:55.823349,1.9315761,-0.0863465,1.9909089,-3.393662,-5.007873,1.3422236
804,2026-05-11 16:09:55.826019,1.9315761,-0.0863465,1.9909089,-3.393662,-5.007873,1.3422236
805,2026-05-11 16:09:55.828787,1.9315761,-0.0863465,1.9909089,-3.393662,-5.007873,1.3422236
806,2026-05-11 16:09:55.831475,1.9315761,-0.0863465,1.9909089,-3.393662,-5.007873,1.3422236
807,2026-05-11 16:09:55.834559,1.9315761,-0.0863465,1.9909089,-3.393662,-5.007873,1.3422236
808,2026-05-11 16:09:55.837780,1.9315761,-0.0863465,1.9909089,-3.393662,-5.007873,1.3422236
809,2026-05-11 16:09:55.840487,1.9315761,-0.0863465,1.9909089,-3.393662,-5.007873,1.3422236
810,2026-05-11 16:09:55.843381,1.9315761,-0.0863465,1.9909089,-3.393662,-5.007873,1.3422236
811,2026-05-11 16:09:55.846110,1.9315761,-0.0863465,1.9909089,-3.393662,-5.007873,1.3422236
812,2026-05-11 16:09:55.848788,1.9315761,-0.0863465,1.9909089,-3.393662,-5.007873,1.3422236
813,2026-05-11 16:09:55.851879,1.9315761,-0.0863465,1.9909089,-3.393662,-5.007873,1.3422236
814,2026-05-11 16:09:55.854700,1.9315761,-0.0863465,1.9909089,-4.5092545,-4.465425,0.9944886
815,2026-05-11 16:09:55.857429,1.9315761,-0.0863465,1.9909089,-4.5092545,-4.465425,0.9944886
816,2026-05-11 16:09:55.860069,1.9315761,-0.0863465,1.9909089,-4.5092545,-4.465425,0.9944886
817,2026-05-11 16:09:55.862672,1.9315761,-0.0863465,1.9909089,-4.5092545,-4.465425,0.9944886
818,2026-05-11 16:09:55.865249,1.9315761,-0.0863465,1.9909089,-4.5092545,-4.465425,0.9944886
819,2026-05-11 16:09:55.868145,1.9315761,-0.0863465,1.9909089,-4.5092545,-4.465425,0.9944886
820,2026-05-11 16:09:55.870834,1.9315761,-0.0863465,1.9909089,-4.5092545,-4.465425,0.9944886
821,2026-05-11 16:09:55.873383,1.9315761,-0.0863465,1.9909089,-4.5092545,-4.465425,0.9944886
822,2026-05-11 16:09:55.876134,1.9315761,-0.0863465,1.9909089,-4.5092545,-4.465425,0.9944886
823,2026-05-11 16:09:55.878943,1.9315761,-0.0863465,1.9909089,-4.5092545,-4.465425,0.9944886
824,2026-05-11 16:09:55.881540,1.9315761,-0.0863465,1.9909089,-4.5092545,-4.465425,0.9944886
825,2026-05-11 16:09:55.884479,1.9315761,-0.0863465,1.9909089,-4.5092545,-4.465425,0.9944886
826,2026-05-11 16:09:55.887166,1.9315761,-0.0863465,1.9909089,-4.5092545,-4.465425,0.9944886
827,2026-05-11 16:09:55.889786,1.9315761,-0.0863465,1.9909089,-4.5092545,-4.465425,0.9944886
828,2026-05-11 16:09:55.892478,1.9315761,-0.0863465,1.9909089,-4.5092545,-4.465425,0.9944886
829,2026-05-11 16:09:55.895088,1.9315761,-0.0863465,1.9909089,-4.5092545,-4.465425,0.9944886
830,2026-05-11 16:09:55.897680,1.9315761,-0.0863465,1.9909089,-4.5092545,-4.465425,0.9944886
831,2026-05-11 16:09:55.900545,1.9315761,-0.0863465,1.9909089,-4.5092545,-4.465425,0.9944886
832,2026-05-11 16:09:55.903330,1.9315761,-0.0863465,1.9909089,-4.5092545,-4.465425,0.9944886
833,2026-05-11 16:09:55.906071,1.9315761,-0.0863465,1.9909089,-4.5092545,-4.465425,0.9944886
834,2026-05-11 16:09:55.908852,1.9315761,-0.0863465,1.9909089,-4.5092545,-4.465425,0.9944886
835,2026-05-11 16:09:55.911502,1.9315761,-0.0863465,1.9909089,-4.5092545,-4.465425,0.9944886
836,2026-05-11 16:09:55.914073,1.9315761,-0.0863465,1.9909089,-4.5092545,-4.465425,0.9944886
837,2026-05-11 16:09:55.917286,1.8699871,-0.15275282,2.6823516,-4.945565,-3.8082867,0.55741453
838,2026-05-11 16:09:55.920266,1.8699871,-0.15275282,2.6823516,-4.945565,-3.8082867,0.55741453
839,2026-05-11 16:09:55.922956,1.8699871,-0.15275282,2.6823516,-4.945565,-3.8082867,0.55741453
840,2026-05-11 16:09:55.925569,1.8699871,-0.15275282,2.6823516,-4.945565,-3.8082867,0.55741453
841,2026-05-11 16:09:55.928295,1.8699871,-0.15275282,2.6823516,-4.945565,-3.8082867,0.55741453
842,2026-05-11 16:09:55.930860,1.8699871,-0.15275282,2.6823516,-4.945565,-3.8082867,0.55741453
843,2026-05-11 16:09:55.933901,1.8699871,-0.15275282,2.6823516,-4.945565,-3.8082867,0.55741453
844,2026-05-11 16:09:55.936821,1.8699871,-0.15275282,2.6823516,-4.945565,-3.8082867,0.55741453
845,2026-05-11 16:09:55.939466,1.8699871,-0.15275282,2.6823516,-4.945565,-3.8082867,0.55741453
846,2026-05-11 16:09:55.942271,1.8699871,-0.15275282,2.6823516,-4.945565,-3.8082867,0.55741453
847,2026-05-11 16:09:55.944993,1.8699871,-0.15275282,2.6823516,-4.945565,-3.8082867,0.55741453
848,2026-05-11 16:09:55.947717,1.7103437,-0.19281614,3.1489642,-4.6239443,-3.3928983,0.3642284
849,2026-05-11 16:09:55.950750,1.7103437,-0.19281614,3.1489642,-4.6239443,-3.3928983,0.3642284
850,2026-05-11 16:09:55.953549,1.7103437,-0.19281614,3.1489642,-4.6239443,-3.3928983,0.3642284
851,2026-05-11 16:09:55.956117,1.7103437,-0.19281614,3.1489642,-4.6239443,-3.3928983,0.3642284
852,2026-05-11 16:09:55.958874,1.7103437,-0.19281614,3.1489642,-4.6239443,-3.3928983,0.3642284
853,2026-05-11 16:09:55.961454,1.7103437,-0.19281614,3.1489642,-4.6239443,-3.3928983,0.3642284
854,2026-05-11 16:09:55.964007,1.7103437,-0.19281614,3.1489642,-4.6239443,-3.3928983,0.3642284
855,2026-05-11 16:09:55.967210,1.7103437,-0.19281614,3.1489642,-4.6239443,-3.3928983,0.3642284
856,2026-05-11 16:09:55.969984,1.7103437,-0.19281614,3.1489642,-4.6239443,-3.3928983,0.3642284
857,2026-05-11 16:09:55.972747,1.7103437,-0.19281614,3.1489642,-4.6239443,-3.3928983,0.3642284
858,2026-05-11 16:09:55.975385,1.7103437,-0.19281614,3.1489642,-4.6239443,-3.3928983,0.3642284
859,2026-05-11 16:09:55.977954,1.7103437,-0.19281614,3.1489642,-4.6239443,-3.3928983,0.3642284
860,2026-05-11 16:09:55.980782,1.7103437,-0.19281614,3.1489642,-4.6239443,-3.3928983,0.3642284
861,2026-05-11 16:09:55.983698,1.7103437,-0.19281614,3.1489642,-4.6239443,-3.3928983,0.3642284
862,2026-05-11 16:09:55.986624,1.7103437,-0.19281614,3.1489642,-4.0886736,-3.163671,0.14431691
863,2026-05-11 16:09:55.989316,1.7103437,-0.19281614,3.1489642,-4.0886736,-3.163671,0.14431691
864,2026-05-11 16:09:55.991892,1.7103437,-0.19281614,3.1489642,-4.0886736,-3.163671,0.14431691
865,2026-05-11 16:09:55.994693,1.7103437,-0.19281614,3.1489642,-4.0886736,-3.163671,0.14431691
866,2026-05-11 16:09:55.997276,1.7103437,-0.19281614,3.1489642,-4.0886736,-3.163671,0.14431691
867,2026-05-11 16:09:56.000171,1.727418,-0.036282603,3.3476343,-4.0886736,-3.163671,0.14431691
868,2026-05-11 16:09:56.003088,1.727418,-0.036282603,3.3476343,-4.0886736,-3.163671,0.14431691
869,2026-05-11 16:09:56.005675,1.727418,-0.036282603,3.3476343,-4.0886736,-3.163671,0.14431691
870,2026-05-11 16:09:56.008346,1.727418,-0.036282603,3.3476343,-4.0886736,-3.163671,0.14431691
871,2026-05-11 16:09:56.011142,1.5446633,-0.001097625,3.4327002,-1.7875444,-2.9335277,-1.0038043
872,2026-05-11 16:09:56.013812,1.5446633,-0.001097625,3.4327002,-1.7875444,-2.9335277,-1.0038043
873,2026-05-11 16:09:56.016849,1.5446633,-0.001097625,3.4327002,-1.7875444,-2.9335277,-1.0038043
874,2026-05-11 16:09:56.019852,1.5446633,-0.001097625,3.4327002,-1.7875444,-2.9335277,-1.0038043
875,2026-05-11 16:09:56.022480,1.5446633,-0.001097625,3.4327002,-1.7875444,-2.9335277,-1.0038043
876,2026-05-11 16:09:56.025065,1.5446633,-0.001097625,3.4327002,-1.7875444,-2.9335277,-1.0038043
877,2026-05-11 16:09:56.027863,1.5446633,-0.001097625,3.4327002,-1.7875444,-2.9335277,-1.0038043
878,2026-05-11 16:09:56.030509,1.5446633,-0.001097625,3.4327002,-1.7875444,-2.9335277,-1.0038043
879,2026-05-11 16:09:56.033514,1.5446633,-0.001097625,3.4327002,-1.7875444,-2.9335277,-1.0038043
880,2026-05-11 16:09:56.036541,1.3759949,0.01750102,3.3526957,-1.7875444,-2.9335277,-1.0038043
881,2026-05-11 16:09:56.039146,1.3759949,0.01750102,3.3526957,-1.7875444,-2.9335277,-1.0038043
882,2026-05-11 16:09:56.041768,1.3759949,0.01750102,3.3526957,-1.7875444,-2.9335277,-1.0038043
883,2026-05-11 16:09:56.044405,1.3759949,0.01750102,3.3526957,-1.7875444,-2.9335277,-1.0038043
884,2026-05-11 16:09:56.046982,1.3759949,0.01750102,3.3526957,-1.7875444,-2.9335277,-1.0038043
885,2026-05-11 16:09:56.050152,0.9642026,0.08555377,3.1209748,-1.7875444,-2.9335277,-1.0038043
886,2026-05-11 16:09:56.053110,0.9642026,0.08555377,3.1209748,-1.7875444,-2.9335277,-1.0038043
887,2026-05-11 16:09:56.055793,0.9642026,0.08555377,3.1209748,-1.7875444,-2.9335277,-1.0038043
888,2026-05-11 16:09:56.058523,0.9642026,0.08555377,3.1209748,-1.7875444,-2.9335277,-1.0038043
889,2026-05-11 16:09:56.061187,0.9642026,0.08555377,3.1209748,-1.7875444,-2.9335277,-1.0038043
890,2026-05-11 16:09:56.063793,0.9642026,0.08555377,3.1209748,-1.7875444,-2.9335277,-1.0038043
891,2026-05-11 16:09:56.067026,0.9642026,0.08555377,3.1209748,-1.7875444,-2.9335277,-1.0038043
892,2026-05-11 16:09:56.070016,0.71876144,0.016769271,2.9206583,-0.27412578,-2.0176878,-1.2153164
893,2026-05-11 16:09:56.072617,0.71876144,0.016769271,2.9206583,-0.27412578,-2.0176878,-1.2153164
894,2026-05-11 16:09:56.097351,0.71876144,0.016769271,2.9206583,-0.27412578,-2.0176878,-1.2153164
895,2026-05-11 16:09:56.100943,0.71876144,0.016769271,2.9206583,-0.27412578,-2.0176878,-1.2153164
896,2026-05-11 16:09:56.109389,0.71876144,0.016769271,2.9206583,-0.27412578,-2.0176878,-1.2153164
897,2026-05-11 16:09:56.112473,0.71876144,0.016769271,2.9206583,-0.27412578,-2.0176878,-1.2153164
898,2026-05-11 16:09:56.115198,0.71876144,0.016769271,2.9206583,-0.27412578,-2.0176878,-1.2153164
899,2026-05-11 16:09:56.118299,0.71876144,0.016769271,2.9206583,-0.27412578,-2.0176878,-1.2153164
900,2026-05-11 16:09:56.121065,0.61832875,0.016708292,2.859435,-0.27412578,-2.0176878,-1.2153164
901,2026-05-11 16:09:56.123825,0.61832875,0.016708292,2.859435,-0.27412578,-2.0176878,-1.2153164
902,2026-05-11 16:09:56.126487,0.61832875,0.016708292,2.859435,-0.27412578,-2.0176878,-1.2153164
903,2026-05-11 16:09:56.129101,0.61832875,0.016708292,2.859435,-0.27412578,-2.0176878,-1.2153164
904,2026-05-11 16:09:56.131835,0.61832875,0.016708292,2.859435,-0.27412578,-2.0176878,-1.2153164
905,2026-05-11 16:09:56.134978,0.61832875,0.016708292,2.859435,-0.2742785,-1.4080443,-1.0896308
906,2026-05-11 16:09:56.137881,0.61832875,0.016708292,2.859435,-0.2742785,-1.4080443,-1.0896308
907,2026-05-11 16:09:56.140599,0.61832875,0.016708292,2.859435,-0.2742785,-1.4080443,-1.0896308
908,2026-05-11 16:09:56.143456,0.5078345,0.083602436,2.7447333,-0.2742785,-1.4080443,-1.0896308
909,2026-05-11 16:09:56.146165,0.5078345,0.083602436,2.7447333,-0.2742785,-1.4080443,-1.0896308
910,2026-05-11 16:09:56.148863,0.5078345,0.083602436,2.7447333,-0.2742785,-1.4080443,-1.0896308
911,2026-05-11 16:09:56.152120,0.5078345,0.083602436,2.7447333,-0.3915646,-0.004886922,-0.77274454
912,2026-05-11 16:09:56.154822,0.5078345,0.083602436,2.7447333,-0.3915646,-0.004886922,-0.77274454
913,2026-05-11 16:09:56.157491,0.5078345,0.083602436,2.7447333,-0.3915646,-0.004886922,-0.77274454
914,2026-05-11 16:09:56.160114,0.5078345,0.083602436,2.7447333,-0.3915646,-0.004886922,-0.77274454
915,2026-05-11 16:09:56.162739,0.5078345,0.083602436,2.7447333,-0.3915646,-0.004886922,-0.77274454
916,2026-05-11 16:09:56.165301,0.5078345,0.083602436,2.7447333,-0.3915646,-0.004886922,-0.77274454
917,2026-05-11 16:09:56.168268,0.5078345,0.083602436,2.7447333,-0.3915646,-0.004886922,-0.77274454
918,2026-05-11 16:09:56.171182,0.5078345,0.083602436,2.7447333,-0.3915646,-0.004886922,-0.77274454
919,2026-05-11 16:09:56.173868,0.5078345,0.083602436,2.7447333,-0.3915646,-0.004886922,-0.77274454
920,2026-05-11 16:09:56.176666,0.5078345,0.083602436,2.7447333,-0.3915646,-0.004886922,-0.77274454
921,2026-05-11 16:09:56.179429,0.5078345,0.083602436,2.7447333,-0.3915646,-0.004886922,-0.77274454
922,2026-05-11 16:09:56.182031,0.5078345,0.083602436,2.7447333,-0.3915646,-0.004886922,-0.77274454
923,2026-05-11 16:09:56.185114,0.5078345,0.083602436,2.7447333,-0.3915646,-0.004886922,-0.77274454
924,2026-05-11 16:09:56.187836,0.5078345,0.083602436,2.7447333,-0.3915646,-0.004886922,-0.77274454
925,2026-05-11 16:09:56.190715,0.5078345,0.083602436,2.7447333,-0.42210788,0.66538495,-0.656222
926,2026-05-11 16:09:56.193317,0.5078345,0.083602436,2.7447333,-0.42210788,0.66538495,-0.656222
927,2026-05-11 16:09:56.195887,0.5078345,0.083602436,2.7447333,-0.42210788,0.66538495,-0.656222
928,2026-05-11 16:09:56.198605,0.5078345,0.083602436,2.7447333,-0.42210788,0.66538495,-0.656222
929,2026-05-11 16:09:56.201575,0.5078345,0.083602436,2.7447333,-0.42210788,0.66538495,-0.656222
930,2026-05-11 16:09:56.204376,0.5078345,0.083602436,2.7447333,-0.42210788,0.66538495,-0.656222
931,2026-05-11 16:09:56.207030,0.5078345,0.083602436,2.7447333,-0.42210788,0.66538495,-0.656222
932,2026-05-11 16:09:56.209640,0.5078345,0.083602436,2.7447333,-0.42210788,0.66538495,-0.656222
933,2026-05-11 16:09:56.212440,0.5078345,0.083602436,2.7447333,-0.42210788,0.66538495,-0.656222
934,2026-05-11 16:09:56.215076,0.5078345,0.083602436,2.7447333,-0.42210788,0.66538495,-0.656222
935,2026-05-11 16:09:56.218061,0.5078345,0.083602436,2.7447333,-0.42210788,0.66538495,-0.656222
936,2026-05-11 16:09:56.220743,0.5078345,0.083602436,2.7447333,-0.42210788,0.66538495,-0.656222
937,2026-05-11 16:09:56.223500,0.506371,0.09146875,2.733086,-0.42210788,0.66538495,-0.656222
938,2026-05-11 16:09:56.226256,0.506371,0.09146875,2.733086,-0.42210788,0.66538495,-0.656222
939,2026-05-11 16:09:56.228976,0.506371,0.09146875,2.733086,-0.28084528,1.5462526,-0.5500842
940,2026-05-11 16:09:56.231606,0.506371,0.09146875,2.733086,-0.28084528,1.5462526,-0.5500842
941,2026-05-11 16:09:56.234657,0.506371,0.09146875,2.733086,-0.28084528,1.5462526,-0.5500842
942,2026-05-11 16:09:56.237400,0.54497087,0.09866429,2.7021089,-0.28084528,1.5462526,-0.5500842
943,2026-05-11 16:09:56.239986,0.54497087,0.09866429,2.7021089,-0.28084528,1.5462526,-0.5500842
944,2026-05-11 16:09:56.242744,0.54497087,0.09866429,2.7021089,-0.28084528,1.5462526,-0.5500842
945,2026-05-11 16:09:56.245399,0.54497087,0.09866429,2.7021089,-0.28084528,1.5462526,-0.5500842
946,2026-05-11 16:09:56.248008,0.54497087,0.09866429,2.7021089,-0.28084528,1.5462526,-0.5500842
947,2026-05-11 16:09:56.251091,0.54497087,0.09866429,2.7021089,-0.28084528,1.5462526,-0.5500842
948,2026-05-11 16:09:56.253921,0.54497087,0.09866429,2.7021089,-0.28084528,1.5462526,-0.5500842
949,2026-05-11 16:09:56.256606,0.54497087,0.09866429,2.7021089,-0.28084528,1.5462526,-0.5500842
950,2026-05-11 16:09:56.259312,0.54497087,0.09866429,2.7021089,-0.28084528,1.5462526,-0.5500842
951,2026-05-11 16:09:56.261897,0.54497087,0.09866429,2.7021089,-0.28084528,1.5462526,-0.5500842
952,2026-05-11 16:09:56.264580,0.54497087,0.09866429,2.7021089,-0.28084528,1.5462526,-0.5500842
953,2026-05-11 16:09:56.267463,0.54497087,0.09866429,2.7021089,-0.28084528,1.5462526,-0.5500842
954,2026-05-11 16:09:56.270131,0.54497087,0.09866429,2.7021089,-0.28084528,1.5462526,-0.5500842
955,2026-05-11 16:09:56.272728,0.54497087,0.09866429,2.7021089,-0.28084528,1.5462526,-0.5500842
956,2026-05-11 16:09:56.275297,0.54497087,0.09866429,2.7021089,-0.28084528,1.5462526,-0.5500842
957,2026-05-11 16:09:56.278044,0.54497087,0.09866429,2.7021089,-0.28084528,1.5462526,-0.5500842
958,2026-05-11 16:09:56.280862,0.54497087,0.09866429,2.7021089,-0.28084528,1.5462526,-0.5500842
959,2026-05-11 16:09:56.283964,0.54497087,0.09866429,2.7021089,-0.28084528,1.5462526,-0.5500842
960,2026-05-11 16:09:56.286778,0.556313,0.06579652,2.6645458,-0.095294975,2.549599,-0.42332962
961,2026-05-11 16:09:56.289491,0.556313,0.06579652,2.6645458,-0.095294975,2.549599,-0.42332962
962,2026-05-11 16:09:56.292092,0.556313,0.06579652,2.6645458,-0.095294975,2.549599,-0.42332962
963,2026-05-11 16:09:56.294889,0.5404583,0.021159772,2.5767357,-0.095294975,2.549599,-0.42332962
964,2026-05-11 16:09:56.297590,0.5404583,0.021159772,2.5767357,0.344528,2.9385672,-0.45341474
965,2026-05-11 16:09:56.300646,0.5404583,0.021159772,2.5767357,0.344528,2.9385672,-0.45341474
966,2026-05-11 16:09:56.303446,0.5404583,0.021159772,2.5767357,0.344528,2.9385672,-0.45341474
967,2026-05-11 16:09:56.306075,0.5404583,0.021159772,2.5767357,0.344528,2.9385672,-0.45341474
968,2026-05-11 16:09:56.308926,0.5404583,0.021159772,2.5767357,0.344528,2.9385672,-0.45341474
969,2026-05-11 16:09:56.311687,0.5404583,0.021159772,2.5767357,0.344528,2.9385672,-0.45341474
970,2026-05-11 16:09:56.314365,0.45801452,0.015915563,2.3378193,0.344528,2.9385672,-0.45341474
971,2026-05-11 16:09:56.317505,0.45801452,0.015915563,2.3378193,0.344528,2.9385672,-0.45341474
972,2026-05-11 16:09:56.320314,0.45801452,0.015915563,2.3378193,0.7658723,3.12931,-0.5853616
973,2026-05-11 16:09:56.323066,0.45801452,0.015915563,2.3378193,0.7658723,3.12931,-0.5853616
974,2026-05-11 16:09:56.325700,0.45801452,0.015915563,2.3378193,0.7658723,3.12931,-0.5853616
975,2026-05-11 16:09:56.328422,0.45801452,0.015915563,2.3378193,0.7658723,3.12931,-0.5853616
976,2026-05-11 16:09:56.331012,0.45801452,0.015915563,2.3378193,0.7658723,3.12931,-0.5853616
977,2026-05-11 16:09:56.334045,0.45801452,0.015915563,2.3378193,0.7658723,3.12931,-0.5853616
978,2026-05-11 16:09:56.336868,0.45801452,0.015915563,2.3378193,0.7658723,3.12931,-0.5853616
979,2026-05-11 16:09:56.339507,0.45801452,0.015915563,2.3378193,0.7658723,3.12931,-0.5853616
980,2026-05-11 16:09:56.342266,0.45801452,0.015915563,2.3378193,0.7658723,3.12931,-0.5853616
981,2026-05-11 16:09:56.344844,0.45801452,0.015915563,2.3378193,0.7658723,3.12931,-0.5853616
982,2026-05-11 16:09:56.347667,0.45801452,0.015915563,2.3378193,0.7658723,3.12931,-0.5853616
983,2026-05-11 16:09:56.350730,0.45801452,0.015915563,2.3378193,0.7658723,3.12931,-0.5853616
984,2026-05-11 16:09:56.353566,0.45801452,0.015915563,2.3378193,0.7658723,3.12931,-0.5853616
985,2026-05-11 16:09:56.356323,0.45801452,0.015915563,2.3378193,0.7658723,3.12931,-0.5853616
986,2026-05-11 16:09:56.359040,0.45801452,0.015915563,2.3378193,0.7658723,3.12931,-0.5853616
987,2026-05-11 16:09:56.361832,0.45801452,0.015915563,2.3378193,0.7658723,3.12931,-0.5853616
988,2026-05-11 16:09:56.364542,0.45801452,0.015915563,2.3378193,0.7658723,3.12931,-0.5853616
989,2026-05-11 16:09:56.367556,0.45801452,0.015915563,2.3378193,0.7658723,3.12931,-0.5853616
990,2026-05-11 16:09:56.370349,0.45801452,0.015915563,2.3378193,0.7658723,3.12931,-0.5853616
991,2026-05-11 16:09:56.373099,0.45801452,0.015915563,2.3378193,0.7658723,3.12931,-0.5853616
992,2026-05-11 16:09:56.375844,0.4246589,-0.033355605,2.2168367,0.978148,3.2070425,-0.6218608
993,2026-05-11 16:09:56.378633,0.36117962,-0.13055639,2.0444486,0.978148,3.2070425,-0.6218608
994,2026-05-11 16:09:56.381327,0.36117962,-0.13055639,2.0444486,1.1258247,3.360828,-0.48991394
995,2026-05-11 16:09:56.384456,0.36117962,-0.13055639,2.0444486,1.1258247,3.360828,-0.48991394
996,2026-05-11 16:09:56.387483,0.36569205,-0.16866837,1.993226,1.1258247,3.360828,-0.48991394
997,2026-05-11 16:09:56.390295,0.36569205,-0.16866837,1.993226,1.1258247,3.360828,-0.48991394
998,2026-05-11 16:09:56.393052,0.36569205,-0.16866837,1.993226,1.1258247,3.360828,-0.48991394
999,2026-05-11 16:09:56.395744,0.36569205,-0.16866837,1.993226,1.1258247,3.360828,-0.48991394
1000,2026-05-11 16:09:56.398324,0.36569205,-0.16866837,1.993226,1.1258247,3.360828,-0.48991394
1001,2026-05-11 16:09:56.401409,0.36569205,-0.16866837,1.993226,1.1258247,3.360828,-0.48991394
1002,2026-05-11 16:09:56.404138,0.36569205,-0.16866837,1.993226,1.1258247,3.360828,-0.48991394
1003,2026-05-11 16:09:56.406855,0.36569205,-0.16866837,1.993226,1.1258247,3.360828,-0.48991394
1004,2026-05-11 16:09:56.409687,0.36569205,-0.16866837,1.993226,1.1258247,3.360828,-0.48991394
1005,2026-05-11 16:09:56.412511,0.36569205,-0.16866837,1.993226,1.1258247,3.360828,-0.48991394
1006,2026-05-11 16:09:56.415103,0.36569205,-0.16866837,1.993226,1.1258247,3.360828,-0.48991394
1007,2026-05-11 16:09:56.418248,0.36569205,-0.16866837,1.993226,1.1258247,3.360828,-0.48991394
1008,2026-05-11 16:09:56.421171,0.4238662,-0.20891462,1.9651146,1.1258247,3.360828,-0.48991394
1009,2026-05-11 16:09:56.423837,0.4238662,-0.20891462,1.9651146,1.1258247,3.360828,-0.48991394
1010,2026-05-11 16:09:56.426454,0.4238662,-0.20891462,1.9651146,1.1258247,3.360828,-0.48991394
1011,2026-05-11 16:09:56.429307,0.4238662,-0.20891462,1.9651146,1.0980303,3.4158058,-0.42577308
1012,2026-05-11 16:09:56.432152,0.4238662,-0.20891462,1.9651146,1.0980303,3.4158058,-0.42577308
1013,2026-05-11 16:09:56.435654,0.4238662,-0.20891462,1.9651146,0.9744828,3.5630243,-0.37766743
1014,2026-05-11 16:09:56.438538,0.4238662,-0.20891462,1.9651146,0.9744828,3.5630243,-0.37766743
1015,2026-05-11 16:09:56.441146,0.4238662,-0.20891462,1.9651146,0.9744828,3.5630243,-0.37766743
1016,2026-05-11 16:09:56.443722,0.4238662,-0.20891462,1.9651146,0.9744828,3.5630243,-0.37766743
1017,2026-05-11 16:09:56.446549,0.4238662,-0.20891462,1.9651146,0.9744828,3.5630243,-0.37766743
1018,2026-05-11 16:09:56.449279,0.4238662,-0.20891462,1.9651146,0.9744828,3.5630243,-0.37766743
1019,2026-05-11 16:09:56.452435,0.4238662,-0.20891462,1.9651146,0.9744828,3.5630243,-0.37766743
1020,2026-05-11 16:09:56.455582,0.4238662,-0.20891462,1.9651146,0.9744828,3.5630243,-0.37766743
1021,2026-05-11 16:09:56.458198,0.4238662,-0.20891462,1.9651146,0.9744828,3.5630243,-0.37766743
1022,2026-05-11 16:09:56.461079,0.5252746,-0.26495448,2.0150566,0.9744828,3.5630243,-0.37766743
1023,2026-05-11 16:09:56.463805,0.5252746,-0.26495448,2.0150566,0.9744828,3.5630243,-0.37766743
1024,2026-05-11 16:09:56.466835,0.5252746,-0.26495448,2.0150566,0.9744828,3.5630243,-0.37766743
1025,2026-05-11 16:09:56.469876,0.5252746,-0.26495448,2.0150566,0.9744828,3.5630243,-0.37766743
1026,2026-05-11 16:09:56.472516,0.5252746,-0.26495448,2.0150566,0.9744828,3.5630243,-0.37766743
1027,2026-05-11 16:09:56.475152,0.5252746,-0.26495448,2.0150566,0.9744828,3.5630243,-0.37766743
1028,2026-05-11 16:09:56.478029,0.5252746,-0.26495448,2.0150566,0.9744828,3.5630243,-0.37766743
1029,2026-05-11 16:09:56.480679,0.5252746,-0.26495448,2.0150566,0.95707315,3.846313,-0.32604933
1030,2026-05-11 16:09:56.483606,0.5252746,-0.26495448,2.0150566,0.95707315,3.846313,-0.32604933
1031,2026-05-11 16:09:56.486451,0.5252746,-0.26495448,2.0150566,0.95707315,3.846313,-0.32604933
1032,2026-05-11 16:09:56.489365,0.5252746,-0.26495448,2.0150566,0.95707315,3.846313,-0.32604933
1033,2026-05-11 16:09:56.492008,0.5252746,-0.26495448,2.0150566,0.95707315,3.846313,-0.32604933
1034,2026-05-11 16:09:56.494734,0.5252746,-0.26495448,2.0150566,0.95707315,3.846313,-0.32604933
1035,2026-05-11 16:09:56.497443,0.5252746,-0.26495448,2.0150566,0.95707315,3.846313,-0.32604933
1036,2026-05-11 16:09:56.501119,0.5938761,-0.34648362,2.125124,0.95707315,3.846313,-0.32604933
1037,2026-05-11 16:09:56.504461,0.5938761,-0.34648362,2.125124,0.95707315,3.846313,-0.32604933
1038,2026-05-11 16:09:56.507404,0.5938761,-0.34648362,2.125124,0.95707315,3.846313,-0.32604933
1039,2026-05-11 16:09:56.510566,0.5938761,-0.34648362,2.125124,0.95707315,3.846313,-0.32604933
1040,2026-05-11 16:09:56.513566,0.5938761,-0.34648362,2.125124,0.95707315,3.846313,-0.32604933
1041,2026-05-11 16:09:56.516986,0.591315,-0.39142528,2.180493,1.1007792,4.008345,-0.27962357
1042,2026-05-11 16:09:56.520264,0.591315,-0.39142528,2.180493,1.1007792,4.008345,-0.27962357
1043,2026-05-11 16:09:56.523270,0.591315,-0.39142528,2.180493,1.3741413,4.107458,-0.1777618
1044,2026-05-11 16:09:56.526303,0.591315,-0.39142528,2.180493,1.3741413,4.107458,-0.1777618
1045,2026-05-11 16:09:56.529384,0.588327,-0.44215995,2.2246418,1.3741413,4.107458,-0.1777618
1046,2026-05-11 16:09:56.532601,0.72516423,-0.55716664,2.1625652,1.7760907,4.1891613,-0.032528576
1047,2026-05-11 16:09:56.536257,0.72516423,-0.55716664,2.1625652,1.7760907,4.1891613,-0.032528576
1048,2026-05-11 16:09:56.538997,0.72516423,-0.55716664,2.1625652,1.7760907,4.1891613,-0.032528576
1049,2026-05-11 16:09:56.541747,0.72516423,-0.55716664,2.1625652,1.7760907,4.1891613,-0.032528576
1050,2026-05-11 16:09:56.544387,0.8122425,-0.56003267,2.0543272,2.531731,4.3230934,0.18585575
1051,2026-05-11 16:09:56.546956,0.8122425,-0.56003267,2.0543272,2.531731,4.3230934,0.18585575
1052,2026-05-11 16:09:56.550064,0.8122425,-0.56003267,2.0543272,2.531731,4.3230934,0.18585575
1053,2026-05-11 16:09:56.553098,0.8122425,-0.56003267,2.0543272,2.531731,4.3230934,0.18585575
1054,2026-05-11 16:09:56.555713,0.8122425,-0.56003267,2.0543272,2.531731,4.3230934,0.18585575
1055,2026-05-11 16:09:56.558328,0.8122425,-0.56003267,2.0543272,2.531731,4.3230934,0.18585575
1056,2026-05-11 16:09:56.560931,0.8122425,-0.56003267,2.0543272,2.531731,4.3230934,0.18585575
1057,2026-05-11 16:09:56.563689,0.8122425,-0.56003267,2.0543272,2.531731,4.3230934,0.18585575
1058,2026-05-11 16:09:56.566688,0.8122425,-0.56003267,2.0543272,2.531731,4.3230934,0.18585575
1059,2026-05-11 16:09:56.569699,0.8122425,-0.56003267,2.0543272,2.531731,4.3230934,0.18585575
1060,2026-05-11 16:09:56.572321,0.8122425,-0.56003267,2.0543272,2.531731,4.3230934,0.18585575
1061,2026-05-11 16:09:56.574910,0.8122425,-0.56003267,2.0543272,2.531731,4.3230934,0.18585575
1062,2026-05-11 16:09:56.577666,0.8122425,-0.56003267,2.0543272,2.531731,4.3230934,0.18585575
1063,2026-05-11 16:09:56.580271,0.8122425,-0.56003267,2.0543272,2.531731,4.3230934,0.18585575
1064,2026-05-11 16:09:56.583137,0.8122425,-0.56003267,2.0543272,2.531731,4.3230934,0.18585575
1065,2026-05-11 16:09:56.586236,0.8122425,-0.56003267,2.0543272,2.531731,4.3230934,0.18585575
1066,2026-05-11 16:09:56.588976,0.8122425,-0.56003267,2.0543272,3.1963525,4.3408084,0.2591596
1067,2026-05-11 16:09:56.591652,0.8122425,-0.56003267,2.0543272,3.1963525,4.3408084,0.2591596
1068,2026-05-11 16:09:56.594310,0.8122425,-0.56003267,2.0543272,3.1963525,4.3408084,0.2591596
1069,2026-05-11 16:09:56.596992,0.971886,-0.5081394,1.7902874,3.1963525,4.3408084,0.2591596
1070,2026-05-11 16:09:56.599936,0.971886,-0.5081394,1.7902874,3.1963525,4.3408084,0.2591596
1071,2026-05-11 16:09:56.603079,0.971886,-0.5081394,1.7902874,3.1963525,4.3408084,0.2591596
1072,2026-05-11 16:09:56.605758,0.971886,-0.5081394,1.7902874,3.1963525,4.3408084,0.2591596
1073,2026-05-11 16:09:56.608532,0.971886,-0.5081394,1.7902874,3.1963525,4.3408084,0.2591596
1074,2026-05-11 16:09:56.611367,0.971886,-0.5081394,1.7902874,3.1963525,4.3408084,0.2591596
1075,2026-05-11 16:09:56.614102,0.971886,-0.5081394,1.7902874,3.1963525,4.3408084,0.2591596
1076,2026-05-11 16:09:56.617412,0.971886,-0.5081394,1.7902874,3.1963525,4.3408084,0.2591596
1077,2026-05-11 16:09:56.620279,0.971886,-0.5081394,1.7902874,3.1963525,4.3408084,0.2591596
1078,2026-05-11 16:09:56.623013,1.0809777,-0.49582162,1.6841227,3.1328225,4.4474044,0.0954477
1079,2026-05-11 16:09:56.625872,1.1586652,-0.4370377,1.6251558,3.1328225,4.4474044,0.0954477
1080,2026-05-11 16:09:56.628747,1.1586652,-0.4370377,1.6251558,3.085633,4.5382705,-0.052534413
1081,2026-05-11 16:09:56.631408,1.1586652,-0.4370377,1.6251558,3.085633,4.5382705,-0.052534413
1082,2026-05-11 16:09:56.634612,1.0754286,-0.4212441,1.5381995,3.068376,4.7051897,-0.31581733
1083,2026-05-11 16:09:56.637490,1.0754286,-0.4212441,1.5381995,3.068376,4.7051897,-0.31581733
1084,2026-05-11 16:09:56.640095,1.0754286,-0.4212441,1.5381995,3.068376,4.7051897,-0.31581733
1085,2026-05-11 16:09:56.642703,1.0754286,-0.4212441,1.5381995,3.068376,4.7051897,-0.31581733
1086,2026-05-11 16:09:56.645666,0.9824354,-0.4375865,1.446304,3.0039299,4.808426,-0.39904773
1087,2026-05-11 16:09:56.648473,0.9824354,-0.4375865,1.446304,3.0039299,4.808426,-0.39904773
1088,2026-05-11 16:09:56.651588,0.9824354,-0.4375865,1.446304,3.0039299,4.808426,-0.39904773
1089,2026-05-11 16:09:56.654259,0.9824354,-0.4375865,1.446304,3.0039299,4.808426,-0.39904773
1090,2026-05-11 16:09:56.656847,0.9824354,-0.4375865,1.446304,3.0039299,4.808426,-0.39904773
1091,2026-05-11 16:09:56.659558,0.9824354,-0.4375865,1.446304,2.6160305,5.245958,-0.24007004
1092,2026-05-11 16:09:56.662168,0.9824354,-0.4375865,1.446304,2.6160305,5.245958,-0.24007004
1093,2026-05-11 16:09:56.664726,0.9824354,-0.4375865,1.446304,2.6160305,5.245958,-0.24007004
1094,2026-05-11 16:09:56.667833,0.9824354,-0.4375865,1.446304,2.6160305,5.245958,-0.24007004
1095,2026-05-11 16:09:56.670505,0.9824354,-0.4375865,1.446304,2.6160305,5.245958,-0.24007004
1096,2026-05-11 16:09:56.673052,0.9824354,-0.4375865,1.446304,2.6160305,5.245958,-0.24007004
1097,2026-05-11 16:09:56.675658,0.9824354,-0.4375865,1.446304,2.6160305,5.245958,-0.24007004
1098,2026-05-11 16:09:56.678196,0.9824354,-0.4375865,1.446304,2.6160305,5.245958,-0.24007004
1099,2026-05-11 16:09:56.680730,0.9824354,-0.4375865,1.446304,2.6160305,5.245958,-0.24007004
1100,2026-05-11 16:09:56.683836,0.9824354,-0.4375865,1.446304,2.6160305,5.245958,-0.24007004
1101,2026-05-11 16:09:56.686542,0.9824354,-0.4375865,1.446304,2.6160305,5.245958,-0.24007004
1102,2026-05-11 16:09:56.689370,0.74778754,-0.49868765,1.422766,2.4623978,5.6124773,0.25366178
1103,2026-05-11 16:09:56.692197,1.0399387,-0.4495994,1.4835012,2.4623978,5.6124773,0.25366178
1104,2026-05-11 16:09:56.694906,1.0399387,-0.4495994,1.4835012,2.4623978,5.6124773,0.25366178
1105,2026-05-11 16:09:56.698463,1.0399387,-0.4495994,1.4835012,2.4623978,5.6124773,0.25366178
1106,2026-05-11 16:09:56.702010,1.0399387,-0.4495994,1.4835012,2.7441595,5.4460163,0.23915374
1107,2026-05-11 16:09:56.704804,1.0399387,-0.4495994,1.4835012,2.7441595,5.4460163,0.23915374
1108,2026-05-11 16:09:56.707653,1.0399387,-0.4495994,1.4835012,2.7441595,5.4460163,0.23915374
1109,2026-05-11 16:09:56.710485,1.0399387,-0.4495994,1.4835012,2.7441595,5.4460163,0.23915374
1110,2026-05-11 16:09:56.713176,1.0471952,-0.42221975,1.4845378,2.7441595,5.4460163,0.23915374
1111,2026-05-11 16:09:56.716122,1.0471952,-0.42221975,1.4845378,2.7441595,5.4460163,0.23915374
1112,2026-05-11 16:09:56.719335,1.0471952,-0.42221975,1.4845378,2.9831605,5.258939,0.11835514
1113,2026-05-11 16:09:56.722053,1.0471952,-0.42221975,1.4845378,2.9831605,5.258939,0.11835514
1114,2026-05-11 16:09:56.724822,1.0471952,-0.42221975,1.4845378,2.9831605,5.258939,0.11835514
1115,2026-05-11 16:09:56.727569,1.0471952,-0.42221975,1.4845378,2.9831605,5.258939,0.11835514
1116,2026-05-11 16:09:56.730348,0.95743394,-0.4785645,1.492831,4.3388233,4.6647196,-0.24205536
1117,2026-05-11 16:09:56.733516,0.95743394,-0.4785645,1.492831,4.3388233,4.6647196,-0.24205536
1118,2026-05-11 16:09:56.736425,0.95743394,-0.4785645,1.492831,4.3388233,4.6647196,-0.24205536
1119,2026-05-11 16:09:56.739149,0.9054797,-0.50563926,1.4014843,4.3388233,4.6647196,-0.24205536
1120,2026-05-11 16:09:56.741827,0.9054797,-0.50563926,1.4014843,4.3388233,4.6647196,-0.24205536
1121,2026-05-11 16:09:56.744592,0.9054797,-0.50563926,1.4014843,4.3388233,4.6647196,-0.24205536
1122,2026-05-11 16:09:56.747228,0.9054797,-0.50563926,1.4014843,4.3388233,4.6647196,-0.24205536
1123,2026-05-11 16:09:56.750155,0.9054797,-0.50563926,1.4014843,4.3388233,4.6647196,-0.24205536
1124,2026-05-11 16:09:56.753053,0.9054797,-0.50563926,1.4014843,4.3388233,4.6647196,-0.24205536
1125,2026-05-11 16:09:56.755850,0.9054797,-0.50563926,1.4014843,4.3388233,4.6647196,-0.24205536
1126,2026-05-11 16:09:56.758461,0.9054797,-0.50563926,1.4014843,4.3388233,4.6647196,-0.24205536
1127,2026-05-11 16:09:56.761277,0.9054797,-0.50563926,1.4014843,4.3388233,4.6647196,-0.24205536
1128,2026-05-11 16:09:56.764005,0.9054797,-0.50563926,1.4014843,4.3388233,4.6647196,-0.24205536
1129,2026-05-11 16:09:56.767056,0.9054797,-0.50563926,1.4014843,4.3388233,4.6647196,-0.24205536
1130,2026-05-11 16:09:56.769837,0.9054797,-0.50563926,1.4014843,4.3388233,4.6647196,-0.24205536
1131,2026-05-11 16:09:56.772615,0.9054797,-0.50563926,1.4014843,4.3388233,4.6647196,-0.24205536
1132,2026-05-11 16:09:56.775376,0.8861493,-0.5161277,1.3151987,4.6260824,4.592485,-0.28970283
1133,2026-05-11 16:09:56.778139,0.8861493,-0.5161277,1.3151987,4.6260824,4.592485,-0.28970283
1134,2026-05-11 16:09:56.780828,0.8861493,-0.5161277,1.3151987,4.6260824,4.592485,-0.28970283
1135,2026-05-11 16:09:56.783897,0.7850458,-0.53527516,0.9364571,4.606993,4.905859,-0.19013181
1136,2026-05-11 16:09:56.786812,0.7850458,-0.53527516,0.9364571,4.606993,4.905859,-0.19013181
1137,2026-05-11 16:09:56.789510,0.7850458,-0.53527516,0.9364571,4.606993,4.905859,-0.19013181
1138,2026-05-11 16:09:56.792127,0.6818081,-0.42191488,0.37990022,4.606993,4.905859,-0.19013181
1139,2026-05-11 16:09:56.794989,0.6818081,-0.42191488,0.37990022,4.606993,4.905859,-0.19013181
1140,2026-05-11 16:09:56.797653,0.6818081,-0.42191488,0.37990022,4.606993,4.905859,-0.19013181
1141,2026-05-11 16:09:56.800672,0.6818081,-0.42191488,0.37990022,4.606993,4.905859,-0.19013181
1142,2026-05-11 16:09:56.803526,0.6818081,-0.42191488,0.37990022,4.606993,4.905859,-0.19013181
1143,2026-05-11 16:09:56.806348,0.6818081,-0.42191488,0.37990022,4.606993,4.905859,-0.19013181
1144,2026-05-11 16:09:56.809095,0.6818081,-0.42191488,0.37990022,4.606993,4.905859,-0.19013181
1145,2026-05-11 16:09:56.811836,0.6818081,-0.42191488,0.37990022,4.606993,4.905859,-0.19013181
1146,2026-05-11 16:09:56.814423,0.6818081,-0.42191488,0.37990022,4.606993,4.905859,-0.19013181
1147,2026-05-11 16:09:56.817714,0.70248,-0.3141037,0.2862972,4.094324,5.0718613,-0.18860464
1148,2026-05-11 16:09:56.820485,0.70248,-0.3141037,0.2862972,4.094324,5.0718613,-0.18860464
1149,2026-05-11 16:09:56.823192,0.70248,-0.3141037,0.2862972,4.094324,5.0718613,-0.18860464
1150,2026-05-11 16:09:56.825900,0.73126215,-0.22336671,0.24964872,3.7336085,5.06392,-0.3136793
1151,2026-05-11 16:09:56.828524,0.73126215,-0.22336671,0.24964872,3.7336085,5.06392,-0.3136793
1152,2026-05-11 16:09:56.831291,0.73126215,-0.22336671,0.24964872,3.7336085,5.06392,-0.3136793
1153,2026-05-11 16:09:56.834332,0.7533366,-0.19220634,0.2128173,3.578754,4.897154,-0.50442195
1154,2026-05-11 16:09:56.837201,0.7533366,-0.19220634,0.2128173,3.578754,4.897154,-0.50442195
1155,2026-05-11 16:09:56.839845,0.7533366,-0.19220634,0.2128173,3.578754,4.897154,-0.50442195
1156,2026-05-11 16:09:56.842423,0.7533366,-0.19220634,0.2128173,3.578754,4.897154,-0.50442195
1157,2026-05-11 16:09:56.845279,0.7533366,-0.19220634,0.2128173,3.5434766,4.724737,-0.76251256
1158,2026-05-11 16:09:56.847870,0.7533366,-0.19220634,0.2128173,3.5434766,4.724737,-0.76251256
1159,2026-05-11 16:09:56.850950,0.7533366,-0.19220634,0.2128173,3.5434766,4.724737,-0.76251256
1160,2026-05-11 16:09:56.853687,0.7533366,-0.19220634,0.2128173,3.5434766,4.724737,-0.76251256
1161,2026-05-11 16:09:56.856484,0.6952845,-0.16269243,0.18488884,3.5434766,4.724737,-0.76251256
1162,2026-05-11 16:09:56.859094,0.6952845,-0.16269243,0.18488884,3.5434766,4.724737,-0.76251256
1163,2026-05-11 16:09:56.861735,0.6952845,-0.16269243,0.18488884,3.5434766,4.724737,-0.76251256
1164,2026-05-11 16:09:56.864397,0.6952845,-0.16269243,0.18488884,3.5434766,4.724737,-0.76251256
1165,2026-05-11 16:09:56.867847,0.6952845,-0.16269243,0.18488884,3.5434766,4.724737,-0.76251256
1166,2026-05-11 16:09:56.870836,0.37990022,-0.25245374,-0.13891055,3.5654678,4.5388813,-1.1624765
1167,2026-05-11 16:09:56.873518,0.37990022,-0.25245374,-0.13891055,3.5654678,4.5388813,-1.1624765
1168,2026-05-11 16:09:56.876163,0.37990022,-0.25245374,-0.13891055,3.5654678,4.5388813,-1.1624765
1169,2026-05-11 16:09:56.878776,0.37990022,-0.25245374,-0.13891055,3.5654678,4.5388813,-1.1624765
1170,2026-05-11 16:09:56.881459,0.37990022,-0.25245374,-0.13891055,3.5654678,4.5388813,-1.1624765
1171,2026-05-11 16:09:56.884411,0.37990022,-0.25245374,-0.13891055,3.5654678,4.5388813,-1.1624765
1172,2026-05-11 16:09:56.887369,0.37990022,-0.25245374,-0.13891055,3.5654678,4.5388813,-1.1624765
1173,2026-05-11 16:09:56.889992,0.37990022,-0.25245374,-0.13891055,3.5654678,4.5388813,-1.1624765
1174,2026-05-11 16:09:56.892575,0.37990022,-0.25245374,-0.13891055,3.5654678,4.5388813,-1.1624765
1175,2026-05-11 16:09:56.895231,0.37990022,-0.25245374,-0.13891055,3.5654678,4.5388813,-1.1624765
1176,2026-05-11 16:09:56.897786,0.37990022,-0.25245374,-0.13891055,3.5654678,4.5388813,-1.1624765
1177,2026-05-11 16:09:56.900837,0.37990022,-0.25245374,-0.13891055,3.5654678,4.5388813,-1.1624765
1178,2026-05-11 16:09:56.903581,0.37990022,-0.25245374,-0.13891055,3.5654678,4.5388813,-1.1624765
1179,2026-05-11 16:09:56.906429,0.37990022,-0.25245374,-0.13891055,3.5654678,4.5388813,-1.1624765
1180,2026-05-11 16:09:56.909142,0.37990022,-0.25245374,-0.13891055,3.5654678,4.5388813,-1.1624765
1181,2026-05-11 16:09:56.911905,0.37990022,-0.25245374,-0.13891055,3.5654678,4.5388813,-1.1624765
1182,2026-05-11 16:09:56.914527,0.37990022,-0.25245374,-0.13891055,3.5654678,4.5388813,-1.1624765
1183,2026-05-11 16:09:56.917778,0.37990022,-0.25245374,-0.13891055,3.5654678,4.5388813,-1.1624765
1184,2026-05-11 16:09:56.920618,0.37990022,-0.25245374,-0.13891055,3.5654678,4.5388813,-1.1624765
1185,2026-05-11 16:09:56.923283,0.37990022,-0.25245374,-0.13891055,3.5654678,4.5388813,-1.1624765
1186,2026-05-11 16:09:56.926068,0.37990022,-0.25245374,-0.13891055,3.5654678,4.5388813,-1.1624765
1187,2026-05-11 16:09:56.928831,0.37990022,-0.25245374,-0.13891055,3.5654678,4.5388813,-1.1624765
1188,2026-05-11 16:09:56.931611,0.37990022,-0.25245374,-0.13891055,3.5654678,4.5388813,-1.1624765
1189,2026-05-11 16:09:56.934622,0.21342708,-0.2646496,-0.32507995,3.5654678,4.5388813,-1.1624765
1190,2026-05-11 16:09:56.937490,0.21342708,-0.2646496,-0.32507995,3.5654678,4.5388813,-1.1624765
1191,2026-05-11 16:09:56.940218,0.21342708,-0.2646496,-0.32507995,3.5654678,4.5388813,-1.1624765
1192,2026-05-11 16:09:56.942970,0.21342708,-0.2646496,-0.32507995,3.5654678,4.5388813,-1.1624765
1193,2026-05-11 16:09:56.945920,0.10476221,-0.2651374,-0.608877,3.1984904,4.6657887,-0.8892671
1194,2026-05-11 16:09:56.948631,0.10476221,-0.2651374,-0.608877,3.1984904,4.6657887,-0.8892671
1195,2026-05-11 16:09:56.951757,0.10476221,-0.2651374,-0.608877,3.1984904,4.6657887,-0.8892671
1196,2026-05-11 16:09:56.954511,0.10476221,-0.2651374,-0.608877,3.1984904,4.6657887,-0.8892671
1197,2026-05-11 16:09:56.957136,0.10476221,-0.2651374,-0.608877,3.1984904,4.6657887,-0.8892671
1198,2026-05-11 16:09:56.959754,0.10476221,-0.2651374,-0.608877,3.1984904,4.6657887,-0.8892671
1199,2026-05-11 16:09:56.962347,0.10476221,-0.2651374,-0.608877,3.1984904,4.6657887,-0.8892671
1200,2026-05-11 16:09:56.965103,0.10476221,-0.2651374,-0.608877,3.1984904,4.6657887,-0.8892671
1201,2026-05-11 16:09:56.968341,0.10476221,-0.2651374,-0.608877,3.1984904,4.6657887,-0.8892671
1202,2026-05-11 16:09:56.971152,0.10476221,-0.2651374,-0.608877,3.1984904,4.6657887,-0.8892671
1203,2026-05-11 16:09:56.973975,0.10476221,-0.2651374,-0.608877,3.1984904,4.6657887,-0.8892671
1204,2026-05-11 16:09:56.976804,0.12189735,-0.24519724,-0.86480653,2.965598,4.650517,-0.77411896
1205,2026-05-11 16:09:56.979586,0.12189735,-0.24519724,-0.86480653,2.965598,4.650517,-0.77411896
1206,2026-05-11 16:09:56.982331,0.12189735,-0.24519724,-0.86480653,2.965598,4.650517,-0.77411896
1207,2026-05-11 16:09:56.985357,0.12189735,-0.24519724,-0.86480653,2.965598,4.650517,-0.77411896
1208,2026-05-11 16:09:56.988168,0.12189735,-0.24519724,-0.86480653,2.965598,4.650517,-0.77411896
1209,2026-05-11 16:09:56.990793,0.12189735,-0.24519724,-0.86480653,2.965598,4.650517,-0.77411896
1210,2026-05-11 16:09:56.993384,0.12189735,-0.24519724,-0.86480653,2.965598,4.650517,-0.77411896
1211,2026-05-11 16:09:56.996258,0.13958131,-0.13525179,-1.138542,2.4182627,4.6566257,-0.6948592
1212,2026-05-11 16:09:56.999148,-0.02042802,-0.10250599,-1.5919222,1.4760032,4.5817947,-0.8181013
1213,2026-05-11 16:09:57.002234,-0.2209885,-0.12171442,-1.811813,1.4760032,4.5817947,-0.8181013
1214,2026-05-11 16:09:57.005115,-0.2209885,-0.12171442,-1.811813,1.4760032,4.5817947,-0.8181013
1215,2026-05-11 16:09:57.007794,-0.2209885,-0.12171442,-1.811813,1.4760032,4.5817947,-0.8181013
1216,2026-05-11 16:09:57.010708,-0.2209885,-0.12171442,-1.811813,1.0331259,4.2937717,-0.77366084
1217,2026-05-11 16:09:57.013316,-0.2209885,-0.12171442,-1.811813,1.0331259,4.2937717,-0.77366084
1218,2026-05-11 16:09:57.015935,-0.2209885,-0.12171442,-1.811813,1.0331259,4.2937717,-0.77366084
1219,2026-05-11 16:09:57.019313,-0.2209885,-0.12171442,-1.811813,1.0331259,4.2937717,-0.77366084
1220,2026-05-11 16:09:57.022167,-0.38014415,-0.17403455,-1.9888355,1.0331259,4.2937717,-0.77366084
1221,2026-05-11 16:09:57.024814,-0.38014415,-0.17403455,-1.9888355,1.0331259,4.2937717,-0.77366084
1222,2026-05-11 16:09:57.027447,-0.5330189,-0.23531862,-2.1493936,0.49266282,2.8221974,-0.24113905
1223,2026-05-11 16:09:57.030012,-0.5330189,-0.23531862,-2.1493936,0.49266282,2.8221974,-0.24113905
1224,2026-05-11 16:09:57.032559,-0.5330189,-0.23531862,-2.1493936,0.49266282,2.8221974,-0.24113905
1225,2026-05-11 16:09:57.035962,-0.5330189,-0.23531862,-2.1493936,0.49266282,2.8221974,-0.24113905
1226,2026-05-11 16:09:57.038747,-0.5330189,-0.23531862,-2.1493936,0.49266282,2.8221974,-0.24113905
1227,2026-05-11 16:09:57.041419,-0.5330189,-0.23531862,-2.1493936,0.49266282,2.8221974,-0.24113905
1228,2026-05-11 16:09:57.044222,-0.6006448,-0.2555027,-2.1944573,0.44073927,2.1616993,-0.025198191
1229,2026-05-11 16:09:57.046991,-0.7561417,-0.28434587,-2.265254,0.32345316,0.7350236,0.46777007
1230,2026-05-11 16:09:57.049841,-0.7561417,-0.28434587,-2.265254,0.32345316,0.7350236,0.46777007
1231,2026-05-11 16:09:57.052778,-0.7561417,-0.28434587,-2.265254,0.32345316,0.7350236,0.46777007
1232,2026-05-11 16:09:57.055519,-0.7561417,-0.28434587,-2.265254,0.32345316,0.7350236,0.46777007
1233,2026-05-11 16:09:57.058341,-0.6796738,-0.23105007,-2.2029333,0.08857546,-0.4381431,0.8743009
1234,2026-05-11 16:09:57.061229,-0.5862537,-0.17769329,-2.098232,-0.12889257,-1.0645854,1.0421361
1235,2026-05-11 16:09:57.063924,-0.5862537,-0.17769329,-2.098232,-0.12889257,-1.0645854,1.0421361
1236,2026-05-11 16:09:57.067111,-0.34995946,-0.08860273,-1.7611393,-0.12889257,-1.0645854,1.0421361
1237,2026-05-11 16:09:57.070038,-0.34995946,-0.08860273,-1.7611393,-0.12889257,-1.0645854,1.0421361
1238,2026-05-11 16:09:57.072804,-0.34995946,-0.08860273,-1.7611393,-0.6020077,-2.0738876,1.201572
1239,2026-05-11 16:09:57.075468,-0.34995946,-0.08860273,-1.7611393,-0.6020077,-2.0738876,1.201572
1240,2026-05-11 16:09:57.078126,-0.34995946,-0.08860273,-1.7611393,-0.6020077,-2.0738876,1.201572
1241,2026-05-11 16:09:57.080761,-0.34995946,-0.08860273,-1.7611393,-0.6020077,-2.0738876,1.201572
1242,2026-05-11 16:09:57.083881,-0.34995946,-0.08860273,-1.7611393,-0.6020077,-2.0738876,1.201572
1243,2026-05-11 16:09:57.086761,-0.17000991,-0.029696856,-1.5031974,-0.95294976,-2.6505444,1.1404854
1244,2026-05-11 16:09:57.089470,-0.17000991,-0.029696856,-1.5031974,-0.95294976,-2.6505444,1.1404854
1245,2026-05-11 16:09:57.092070,-0.17000991,-0.029696856,-1.5031974,-0.95294976,-2.6505444,1.1404854
1246,2026-05-11 16:09:57.094991,-0.17000991,-0.029696856,-1.5031974,-0.95294976,-2.6505444,1.1404854
1247,2026-05-11 16:09:57.097616,-0.17000991,-0.029696856,-1.5031974,-0.95294976,-2.6505444,1.1404854
1248,2026-05-11 16:09:57.100734,-0.17000991,-0.029696856,-1.5031974,-0.95294976,-2.6505444,1.1404854
1249,2026-05-11 16:09:57.103499,-0.17000991,-0.029696856,-1.5031974,-0.95294976,-2.6505444,1.1404854
1250,2026-05-11 16:09:57.106205,-0.09384694,0.0023172083,-1.3046492,-1.3136657,-3.0508137,0.98349303
1251,2026-05-11 16:09:57.108954,-0.09384694,0.0023172083,-1.3046492,-1.3136657,-3.0508137,0.98349303
1252,2026-05-11 16:09:57.111689,-0.09384694,0.0023172083,-1.3046492,-1.3136657,-3.0508137,0.98349303
1253,2026-05-11 16:09:57.114362,-0.09384694,0.0023172083,-1.3046492,-1.3136657,-3.0508137,0.98349303
1254,2026-05-11 16:09:57.117468,-0.09384694,0.0023172083,-1.3046492,-1.3136657,-3.0508137,0.98349303
1255,2026-05-11 16:09:57.120227,-0.09384694,0.0023172083,-1.3046492,-1.3136657,-3.0508137,0.98349303
1256,2026-05-11 16:09:57.122794,-0.09384694,0.0023172083,-1.3046492,-1.3136657,-3.0508137,0.98349303
1257,2026-05-11 16:09:57.125541,-0.08152915,0.0009756667,-1.1600068,-1.6374242,-3.3229542,0.8837693
1258,2026-05-11 16:09:57.128274,-0.08152915,0.0009756667,-1.1600068,-1.6374242,-3.3229542,0.8837693
