id,timestamp,acc_x,acc_y,acc_z,gyro_x,gyro_y,gyro_z
1,2026-05-11 16:15:34.344701,-0.7911437,0.26849127,1.214766,-0.77579886,0.23808473,1.8756617
2,2026-05-11 16:15:34.358635,-0.7911437,0.26849127,1.214766,-0.77579886,0.23808473,1.8756617
3,2026-05-11 16:15:34.362924,-0.7911437,0.26849127,1.214766,-0.77579886,0.23808473,1.8756617
4,2026-05-11 16:15:34.367040,-0.6311344,0.3474593,1.6299121,-0.77579886,0.23808473,1.8756617
5,2026-05-11 16:15:34.370615,-0.6311344,0.3474593,1.6299121,-0.77579886,0.23808473,1.8756617
6,2026-05-11 16:15:34.373720,-0.6311344,0.3474593,1.6299121,-0.77579886,0.23808473,1.8756617
7,2026-05-11 16:15:34.376903,-0.6311344,0.3474593,1.6299121,-0.77579886,0.23808473,1.8756617
8,2026-05-11 16:15:34.379703,-0.6311344,0.3474593,1.6299121,-0.77579886,0.23808473,1.8756617
9,2026-05-11 16:15:34.383050,-0.6311344,0.3474593,1.6299121,-0.77579886,0.23808473,1.8756617
10,2026-05-11 16:15:34.385903,-0.6311344,0.3474593,1.6299121,-0.77579886,0.23808473,1.8756617
11,2026-05-11 16:15:34.388543,-0.6311344,0.3474593,1.6299121,-0.77579886,0.23808473,1.8756617
12,2026-05-11 16:15:34.391457,-0.6311344,0.3474593,1.6299121,-0.77579886,0.23808473,1.8756617
13,2026-05-11 16:15:34.394461,-0.6311344,0.3474593,1.6299121,-0.77579886,0.23808473,1.8756617
14,2026-05-11 16:15:34.397320,-0.6311344,0.3474593,1.6299121,-0.77579886,0.23808473,1.8756617
15,2026-05-11 16:15:34.400585,-0.6311344,0.3474593,1.6299121,-0.77579886,0.23808473,1.8756617
16,2026-05-11 16:15:34.403376,-0.6311344,0.3474593,1.6299121,-0.77579886,0.23808473,1.8756617
17,2026-05-11 16:15:34.406095,-0.6311344,0.3474593,1.6299121,-0.72418076,0.42180246,1.8956676
18,2026-05-11 16:15:34.408886,-0.6311344,0.3474593,1.6299121,-0.72418076,0.42180246,1.8956676
19,2026-05-11 16:15:34.411494,-0.6311344,0.3474593,1.6299121,-0.72418076,0.42180246,1.8956676
20,2026-05-11 16:15:34.414354,-0.6311344,0.3474593,1.6299121,-0.72418076,0.42180246,1.8956676
21,2026-05-11 16:15:34.417686,-0.6311344,0.3474593,1.6299121,-0.72418076,0.42180246,1.8956676
22,2026-05-11 16:15:34.420480,-0.6311344,0.3474593,1.6299121,-0.72418076,0.42180246,1.8956676
23,2026-05-11 16:15:34.423103,-0.6311344,0.3474593,1.6299121,-0.72418076,0.42180246,1.8956676
24,2026-05-11 16:15:34.425923,-0.6311344,0.3474593,1.6299121,-0.72418076,0.42180246,1.8956676
25,2026-05-11 16:15:34.428538,-0.6311344,0.3474593,1.6299121,-0.72418076,0.42180246,1.8956676
26,2026-05-11 16:15:34.431329,-0.6311344,0.3474593,1.6299121,-0.72418076,0.42180246,1.8956676
27,2026-05-11 16:15:34.434797,-0.6311344,0.3474593,1.6299121,-0.72418076,0.42180246,1.8956676
28,2026-05-11 16:15:34.437650,-0.6311344,0.3474593,1.6299121,-0.72418076,0.42180246,1.8956676
29,2026-05-11 16:15:34.440247,-0.6311344,0.3474593,1.6299121,-0.72418076,0.42180246,1.8956676
30,2026-05-11 16:15:34.442999,-0.6311344,0.3474593,1.6299121,-0.72418076,0.42180246,1.8956676
31,2026-05-11 16:15:34.445799,-0.54143405,0.37593657,1.8971838,-0.2875648,0.7125743,1.8011361
32,2026-05-11 16:15:34.448501,-0.54143405,0.37593657,1.8971838,-0.2875648,0.7125743,1.8011361
33,2026-05-11 16:15:34.451436,-0.54143405,0.37593657,1.8971838,-0.2875648,0.7125743,1.8011361
34,2026-05-11 16:15:34.454291,-0.54143405,0.37593657,1.8971838,0.17959438,0.9405798,1.7108809
35,2026-05-11 16:15:34.457023,-0.54143405,0.37593657,1.8971838,0.17959438,0.9405798,1.7108809
36,2026-05-11 16:15:34.459640,-0.54143405,0.37593657,1.8971838,0.17959438,0.9405798,1.7108809
37,2026-05-11 16:15:34.462364,-0.6369274,0.37941238,1.6095451,0.17959438,0.9405798,1.7108809
38,2026-05-11 16:15:34.465161,-0.6369274,0.37941238,1.6095451,0.17959438,0.9405798,1.7108809
39,2026-05-11 16:15:34.468555,-0.6369274,0.37941238,1.6095451,0.17959438,0.9405798,1.7108809
40,2026-05-11 16:15:34.471319,-0.6369274,0.37941238,1.6095451,0.17959438,0.9405798,1.7108809
41,2026-05-11 16:15:34.474231,-0.6369274,0.37941238,1.6095451,0.17959438,0.9405798,1.7108809
42,2026-05-11 16:15:34.476950,-0.6369274,0.37941238,1.6095451,0.17959438,0.9405798,1.7108809
43,2026-05-11 16:15:34.479544,-0.6369274,0.37941238,1.6095451,0.17959438,0.9405798,1.7108809
44,2026-05-11 16:15:34.482450,-0.6369274,0.37941238,1.6095451,0.17959438,0.9405798,1.7108809
45,2026-05-11 16:15:34.485193,-0.6369274,0.37941238,1.6095451,0.17959438,0.9405798,1.7108809
46,2026-05-11 16:15:34.488048,-0.6369274,0.37941238,1.6095451,0.17959438,0.9405798,1.7108809
47,2026-05-11 16:15:34.490620,-0.6369274,0.37941238,1.6095451,0.17959438,0.9405798,1.7108809
48,2026-05-11 16:15:34.493264,-0.6369274,0.37941238,1.6095451,0.17959438,0.9405798,1.7108809
49,2026-05-11 16:15:34.495930,-0.6369274,0.37941238,1.6095451,0.17959438,0.9405798,1.7108809
50,2026-05-11 16:15:34.498716,-0.6369274,0.37941238,1.6095451,0.17959438,0.9405798,1.7108809
51,2026-05-11 16:15:34.501887,-0.6369274,0.37941238,1.6095451,0.17959438,0.9405798,1.7108809
52,2026-05-11 16:15:34.504804,-0.6369274,0.37941238,1.6095451,0.17959438,0.9405798,1.7108809
53,2026-05-11 16:15:34.507473,-0.6369274,0.37941238,1.6095451,0.17959438,0.9405798,1.7108809
54,2026-05-11 16:15:34.510086,-0.6369274,0.37941238,1.6095451,0.17959438,0.9405798,1.7108809
55,2026-05-11 16:15:34.512661,-0.6369274,0.37941238,1.6095451,0.17959438,0.9405798,1.7108809
56,2026-05-11 16:15:34.515821,-0.7554099,0.3595332,1.3650796,0.93523467,0.91599244,1.6772833
57,2026-05-11 16:15:34.518947,-0.7554099,0.3595332,1.3650796,0.93523467,0.91599244,1.6772833
58,2026-05-11 16:15:34.521720,-0.7554099,0.3595332,1.3650796,0.93523467,0.91599244,1.6772833
59,2026-05-11 16:15:34.524315,-0.7554099,0.3595332,1.3650796,0.93523467,0.91599244,1.6772833
60,2026-05-11 16:15:34.527134,-0.7554099,0.3595332,1.3650796,0.93523467,0.91599244,1.6772833
61,2026-05-11 16:15:34.529722,-0.7554099,0.3595332,1.3650796,0.93523467,0.91599244,1.6772833
62,2026-05-11 16:15:34.532898,-0.7554099,0.3595332,1.3650796,0.93523467,0.91599244,1.6772833
63,2026-05-11 16:15:34.535862,-0.7554099,0.3595332,1.3650796,0.93523467,0.91599244,1.6772833
64,2026-05-11 16:15:34.538591,-0.7554099,0.3595332,1.3650796,0.93523467,0.91599244,1.6772833
65,2026-05-11 16:15:34.541418,-0.7554099,0.3595332,1.3650796,0.93523467,0.91599244,1.6772833
66,2026-05-11 16:15:34.544193,-0.7554099,0.3595332,1.3650796,0.93523467,0.91599244,1.6772833
67,2026-05-11 16:15:34.546794,-0.7554099,0.3595332,1.3650796,0.93523467,0.91599244,1.6772833
68,2026-05-11 16:15:34.550046,-0.7554099,0.3595332,1.3650796,0.93523467,0.91599244,1.6772833
69,2026-05-11 16:15:34.552991,-0.7554099,0.3595332,1.3650796,0.93523467,0.91599244,1.6772833
70,2026-05-11 16:15:34.555794,-0.7554099,0.3595332,1.3650796,0.93523467,0.91599244,1.6772833
71,2026-05-11 16:15:34.558377,-0.7554099,0.3595332,1.3650796,0.93523467,0.91599244,1.6772833
72,2026-05-11 16:15:34.561119,-0.7554099,0.3595332,1.3650796,0.93523467,0.91599244,1.6772833
73,2026-05-11 16:15:34.563794,-0.7554099,0.3595332,1.3650796,0.93523467,0.91599244,1.6772833
74,2026-05-11 16:15:34.566834,-0.7554099,0.3595332,1.3650796,0.93523467,0.91599244,1.6772833
75,2026-05-11 16:15:34.570118,-0.7554099,0.3595332,1.3650796,0.93523467,0.91599244,1.6772833
76,2026-05-11 16:15:34.572927,-0.7554099,0.3595332,1.3650796,0.93523467,0.91599244,1.6772833
77,2026-05-11 16:15:34.575720,-0.7554099,0.3595332,1.3650796,0.93523467,0.91599244,1.6772833
78,2026-05-11 16:15:34.578528,-0.7554099,0.3595332,1.3650796,0.93523467,0.91599244,1.6772833
79,2026-05-11 16:15:34.581121,-0.7554099,0.3595332,1.3650796,0.93523467,0.91599244,1.6772833
80,2026-05-11 16:15:34.583988,-0.7554099,0.3595332,1.3650796,0.93523467,0.91599244,1.6772833
81,2026-05-11 16:15:34.587439,-0.7554099,0.3595332,1.3650796,0.93523467,0.91599244,1.6772833
82,2026-05-11 16:15:34.590257,-0.7836433,0.35105708,1.1108575,0.9633345,0.68477994,1.9130772
83,2026-05-11 16:15:34.593121,-0.7836433,0.35105708,1.1108575,0.9633345,0.68477994,1.9130772
84,2026-05-11 16:15:34.595873,-0.7836433,0.35105708,1.1108575,0.9633345,0.68477994,1.9130772
85,2026-05-11 16:15:34.598624,-0.7836433,0.35105708,1.1108575,0.9633345,0.68477994,1.9130772
86,2026-05-11 16:15:34.601866,-0.7836433,0.35105708,1.1108575,0.9633345,0.68477994,1.9130772
87,2026-05-11 16:15:34.604550,-0.7836433,0.35105708,1.1108575,0.9633345,0.68477994,1.9130772
88,2026-05-11 16:15:34.607143,-0.7836433,0.35105708,1.1108575,0.9633345,0.68477994,1.9130772
89,2026-05-11 16:15:34.610088,-0.7836433,0.35105708,1.1108575,0.9633345,0.68477994,1.9130772
90,2026-05-11 16:15:34.612730,-0.7836433,0.35105708,1.1108575,0.9633345,0.68477994,1.9130772
91,2026-05-11 16:15:34.616008,-0.7836433,0.35105708,1.1108575,0.9633345,0.68477994,1.9130772
92,2026-05-11 16:15:34.618960,-0.7836433,0.35105708,1.1108575,0.9633345,0.68477994,1.9130772
93,2026-05-11 16:15:34.621549,-0.7836433,0.35105708,1.1108575,0.9633345,0.68477994,1.9130772
94,2026-05-11 16:15:34.624429,-0.7836433,0.35105708,1.1108575,0.9633345,0.68477994,1.9130772
95,2026-05-11 16:15:34.627108,-0.7836433,0.35105708,1.1108575,0.9633345,0.68477994,1.9130772
96,2026-05-11 16:15:34.629704,-0.7836433,0.35105708,1.1108575,0.9633345,0.68477994,1.9130772
97,2026-05-11 16:15:34.632996,-0.7836433,0.35105708,1.1108575,0.9633345,0.68477994,1.9130772
98,2026-05-11 16:15:34.635951,-0.7836433,0.35105708,1.1108575,0.9633345,0.68477994,1.9130772
99,2026-05-11 16:15:34.638920,-0.7836433,0.35105708,1.1108575,0.9633345,0.68477994,1.9130772
100,2026-05-11 16:15:34.641557,-0.7836433,0.35105708,1.1108575,0.9633345,0.68477994,1.9130772
101,2026-05-11 16:15:34.644146,-0.7836433,0.35105708,1.1108575,0.9633345,0.68477994,1.9130772
102,2026-05-11 16:15:34.647056,-0.7836433,0.35105708,1.1108575,0.9633345,0.68477994,1.9130772
103,2026-05-11 16:15:34.650281,-0.7836433,0.35105708,1.1108575,0.9633345,0.68477994,1.9130772
104,2026-05-11 16:15:34.653129,-0.7836433,0.35105708,1.1108575,0.9633345,0.68477994,1.9130772
105,2026-05-11 16:15:34.655851,-0.7836433,0.35105708,1.1108575,0.9633345,0.68477994,1.9130772
106,2026-05-11 16:15:34.658693,-0.7836433,0.35105708,1.1108575,0.9633345,0.68477994,1.9130772
107,2026-05-11 16:15:34.661510,-0.7836433,0.35105708,1.1108575,0.9633345,0.68477994,1.9130772
108,2026-05-11 16:15:34.664092,-0.7836433,0.35105708,1.1108575,0.9633345,0.68477994,1.9130772
109,2026-05-11 16:15:34.667530,-0.7836433,0.35105708,1.1108575,0.9633345,0.68477994,1.9130772
110,2026-05-11 16:15:34.670286,-0.7836433,0.35105708,1.1108575,0.9633345,0.68477994,1.9130772
111,2026-05-11 16:15:34.672906,-0.7836433,0.35105708,1.1108575,0.9633345,0.68477994,1.9130772
112,2026-05-11 16:15:34.675731,-0.7836433,0.35105708,1.1108575,0.9633345,0.68477994,1.9130772
113,2026-05-11 16:15:34.678330,-0.7836433,0.35105708,1.1108575,0.9633345,0.68477994,1.9130772
114,2026-05-11 16:15:34.681059,-0.7836433,0.35105708,1.1108575,0.9633345,0.68477994,1.9130772
115,2026-05-11 16:15:34.684059,-0.7836433,0.35105708,1.1108575,0.9633345,0.68477994,1.9130772
116,2026-05-11 16:15:34.686804,-0.7836433,0.35105708,1.1108575,0.9633345,0.68477994,1.9130772
117,2026-05-11 16:15:34.689338,-0.7836433,0.35105708,1.1108575,0.9633345,0.68477994,1.9130772
118,2026-05-11 16:15:34.692277,-0.7836433,0.35105708,1.1108575,0.9633345,0.68477994,1.9130772
119,2026-05-11 16:15:34.694903,-0.7836433,0.35105708,1.1108575,0.9633345,0.68477994,1.9130772
120,2026-05-11 16:15:34.697504,-0.7836433,0.35105708,1.1108575,0.9633345,0.68477994,1.9130772
121,2026-05-11 16:15:34.700752,-0.7836433,0.35105708,1.1108575,0.9633345,0.68477994,1.9130772
122,2026-05-11 16:15:34.703657,-0.7836433,0.35105708,1.1108575,0.9633345,0.68477994,1.9130772
123,2026-05-11 16:15:34.706415,-0.7836433,0.35105708,1.1108575,0.9633345,0.68477994,1.9130772
124,2026-05-11 16:15:34.709004,-0.7836433,0.35105708,1.1108575,0.9633345,0.68477994,1.9130772
125,2026-05-11 16:15:34.711879,-0.7836433,0.35105708,1.1108575,0.9633345,0.68477994,1.9130772
126,2026-05-11 16:15:34.714491,-0.7836433,0.35105708,1.1108575,0.9633345,0.68477994,1.9130772
127,2026-05-11 16:15:34.718051,-0.7836433,0.35105708,1.1108575,0.9633345,0.68477994,1.9130772
128,2026-05-11 16:15:34.720838,-0.7836433,0.35105708,1.1108575,0.9633345,0.68477994,1.9130772
129,2026-05-11 16:15:34.723462,-0.7836433,0.35105708,1.1108575,0.9633345,0.68477994,1.9130772
130,2026-05-11 16:15:34.726256,-0.7836433,0.35105708,1.1108575,0.9633345,0.68477994,1.9130772
131,2026-05-11 16:15:34.728929,-0.7836433,0.35105708,1.1108575,0.9633345,0.68477994,1.9130772
132,2026-05-11 16:15:34.731790,-0.7836433,0.35105708,1.1108575,0.9633345,0.68477994,1.9130772
133,2026-05-11 16:15:34.734876,-0.7836433,0.35105708,1.1108575,0.9633345,0.68477994,1.9130772
134,2026-05-11 16:15:34.737687,-0.7836433,0.35105708,1.1108575,0.9633345,0.68477994,1.9130772
135,2026-05-11 16:15:34.740329,-0.7836433,0.35105708,1.1108575,0.9633345,0.68477994,1.9130772
136,2026-05-11 16:15:34.742984,-0.7836433,0.35105708,1.1108575,0.9633345,0.68477994,1.9130772
137,2026-05-11 16:15:34.745541,-0.7836433,0.35105708,1.1108575,0.9633345,0.68477994,1.9130772
138,2026-05-11 16:15:34.748347,-0.7836433,0.35105708,1.1108575,0.9633345,0.68477994,1.9130772
139,2026-05-11 16:15:34.751423,-0.7836433,0.35105708,1.1108575,0.9633345,0.68477994,1.9130772
140,2026-05-11 16:15:34.754415,-0.7836433,0.35105708,1.1108575,0.90010995,0.44089198,2.157576
141,2026-05-11 16:15:34.757166,-0.7836433,0.35105708,1.1108575,0.90010995,0.44089198,2.157576
142,2026-05-11 16:15:34.759863,-0.722969,0.339593,1.0321944,0.90010995,0.44089198,2.157576
143,2026-05-11 16:15:34.762610,-0.722969,0.339593,1.0321944,0.90010995,0.44089198,2.157576
144,2026-05-11 16:15:34.765843,-0.722969,0.339593,1.0321944,0.90010995,0.44089198,2.157576
145,2026-05-11 16:15:34.768852,-0.722969,0.339593,1.0321944,0.90010995,0.44089198,2.157576
146,2026-05-11 16:15:34.771465,-0.722969,0.339593,1.0321944,0.90010995,0.44089198,2.157576
147,2026-05-11 16:15:34.774086,-0.722969,0.339593,1.0321944,0.90010995,0.44089198,2.157576
148,2026-05-11 16:15:34.776654,-0.722969,0.339593,1.0321944,0.90010995,0.44089198,2.157576
149,2026-05-11 16:15:34.779385,-0.6243047,0.34331274,1.009693,0.90010995,0.44089198,2.157576
150,2026-05-11 16:15:34.782209,-0.6243047,0.34331274,1.009693,0.90010995,0.44089198,2.157576
151,2026-05-11 16:15:34.785538,-0.6243047,0.34331274,1.009693,0.90010995,0.44089198,2.157576
152,2026-05-11 16:15:34.788242,-0.6243047,0.34331274,1.009693,0.90010995,0.44089198,2.157576
153,2026-05-11 16:15:34.790798,-0.6243047,0.34331274,1.009693,0.90010995,0.44089198,2.157576
154,2026-05-11 16:15:34.793696,-0.6243047,0.34331274,1.009693,0.90010995,0.44089198,2.157576
155,2026-05-11 16:15:34.796392,-0.6243047,0.34331274,1.009693,0.90010995,0.44089198,2.157576
156,2026-05-11 16:15:34.799326,-0.6243047,0.34331274,1.009693,0.90010995,0.44089198,2.157576
157,2026-05-11 16:15:34.802560,-0.6243047,0.34331274,1.009693,0.90010995,0.44089198,2.157576
158,2026-05-11 16:15:34.805253,-0.6243047,0.34331274,1.009693,0.90010995,0.44089198,2.157576
159,2026-05-11 16:15:34.807781,-0.6243047,0.34331274,1.009693,0.90010995,0.44089198,2.157576
160,2026-05-11 16:15:34.810495,-0.6243047,0.34331274,1.009693,0.90010995,0.44089198,2.157576
161,2026-05-11 16:15:34.813271,-0.6243047,0.34331274,1.009693,0.90010995,0.44089198,2.157576
162,2026-05-11 16:15:34.816445,-0.6243047,0.34331274,1.009693,0.90010995,0.44089198,2.157576
163,2026-05-11 16:15:34.819241,-0.6243047,0.34331274,1.009693,0.90010995,0.44089198,2.157576
164,2026-05-11 16:15:34.821894,-0.6243047,0.34331274,1.009693,0.90010995,0.44089198,2.157576
165,2026-05-11 16:15:34.824658,-0.6243047,0.34331274,1.009693,0.90010995,0.44089198,2.157576
166,2026-05-11 16:15:34.827269,-0.6243047,0.34331274,1.009693,0.90010995,0.44089198,2.157576
167,2026-05-11 16:15:34.830134,-0.6243047,0.34331274,1.009693,0.8889617,0.2677117,2.270586
168,2026-05-11 16:15:34.833318,-0.6243047,0.34331274,1.009693,0.8889617,0.2677117,2.270586
169,2026-05-11 16:15:34.836158,-0.6243047,0.34331274,1.009693,0.8889617,0.2677117,2.270586
170,2026-05-11 16:15:34.839112,-0.6243047,0.34331274,1.009693,0.8889617,0.2677117,2.270586
171,2026-05-11 16:15:34.841776,-0.6243047,0.34331274,1.009693,0.8889617,0.2677117,2.270586
172,2026-05-11 16:15:34.844340,-0.6243047,0.34331274,1.009693,0.8889617,0.2677117,2.270586
173,2026-05-11 16:15:34.847139,-0.6243047,0.34331274,1.009693,0.8889617,0.2677117,2.270586
174,2026-05-11 16:15:34.850117,-0.6243047,0.34331274,1.009693,0.8889617,0.2677117,2.270586
175,2026-05-11 16:15:34.852968,-0.6243047,0.34331274,1.009693,0.8889617,0.2677117,2.270586
176,2026-05-11 16:15:34.855781,-0.6243047,0.34331274,1.009693,0.8889617,0.2677117,2.270586
177,2026-05-11 16:15:34.858464,-0.43270817,0.32861674,1.0897588,0.97097033,0.014202617,2.399784
178,2026-05-11 16:15:34.861064,-0.43270817,0.32861674,1.0897588,0.97097033,0.014202617,2.399784
179,2026-05-11 16:15:34.863569,-0.43270817,0.32861674,1.0897588,0.97097033,0.014202617,2.399784
180,2026-05-11 16:15:34.866577,-0.43270817,0.32861674,1.0897588,0.97097033,0.014202617,2.399784
181,2026-05-11 16:15:34.869219,-0.43270817,0.32861674,1.0897588,0.97097033,0.014202617,2.399784
182,2026-05-11 16:15:34.871771,-0.43270817,0.32861674,1.0897588,0.97097033,0.014202617,2.399784
183,2026-05-11 16:15:34.874492,-0.43270817,0.32861674,1.0897588,0.97097033,0.014202617,2.399784
184,2026-05-11 16:15:34.877079,-0.43270817,0.32861674,1.0897588,0.97097033,0.014202617,2.399784
185,2026-05-11 16:15:34.879600,-0.43270817,0.32861674,1.0897588,0.97097033,0.014202617,2.399784
186,2026-05-11 16:15:34.882501,-0.43270817,0.32861674,1.0897588,0.97097033,0.014202617,2.399784
187,2026-05-11 16:15:34.885299,-0.43270817,0.32861674,1.0897588,0.97097033,0.014202617,2.399784
188,2026-05-11 16:15:34.887935,-0.43270817,0.32861674,1.0897588,0.97097033,0.014202617,2.399784
189,2026-05-11 16:15:34.890468,-0.43270817,0.32861674,1.0897588,0.97097033,0.014202617,2.399784
190,2026-05-11 16:15:34.893215,-0.43270817,0.32861674,1.0897588,0.97097033,0.014202617,2.399784
191,2026-05-11 16:15:34.895705,-0.43270817,0.32861674,1.0897588,0.97097033,0.014202617,2.399784
192,2026-05-11 16:15:34.898834,-0.43270817,0.32861674,1.0897588,0.97097033,0.014202617,2.399784
193,2026-05-11 16:15:34.901606,-0.43270817,0.32861674,1.0897588,0.97097033,0.014202617,2.399784
194,2026-05-11 16:15:34.904163,-0.43270817,0.32861674,1.0897588,0.97097033,0.014202617,2.399784
195,2026-05-11 16:15:34.906889,-0.43270817,0.32861674,1.0897588,0.97097033,0.014202617,2.399784
196,2026-05-11 16:15:34.909462,-0.43270817,0.32861674,1.0897588,0.97097033,0.014202617,2.399784
197,2026-05-11 16:15:34.911986,-0.43270817,0.32861674,1.0897588,0.97097033,0.014202617,2.399784
198,2026-05-11 16:15:34.914582,-0.43270817,0.32861674,1.0897588,0.97097033,0.014202617,2.399784
199,2026-05-11 16:15:34.917478,-0.43270817,0.32861674,1.0897588,0.97097033,0.014202617,2.399784
200,2026-05-11 16:15:34.920110,-0.43270817,0.32861674,1.0897588,0.97097033,0.014202617,2.399784
201,2026-05-11 16:15:34.922736,-0.43270817,0.32861674,1.0897588,0.97097033,0.014202617,2.399784
202,2026-05-11 16:15:34.925256,-0.43270817,0.32861674,1.0897588,0.97097033,0.014202617,2.399784
203,2026-05-11 16:15:34.927908,-0.43270817,0.32861674,1.0897588,0.97097033,0.014202617,2.399784
204,2026-05-11 16:15:34.930417,-0.43270817,0.32861674,1.0897588,0.97097033,0.014202617,2.399784
205,2026-05-11 16:15:34.933611,-0.43270817,0.32861674,1.0897588,0.97097033,0.014202617,2.399784
206,2026-05-11 16:15:34.936373,-0.43270817,0.32861674,1.0897588,0.97097033,0.014202617,2.399784
207,2026-05-11 16:15:34.938968,-0.43270817,0.32861674,1.0897588,0.97097033,0.014202617,2.399784
208,2026-05-11 16:15:34.941510,-0.43270817,0.32861674,1.0897588,0.97097033,0.014202617,2.399784
209,2026-05-11 16:15:34.944274,-0.43270817,0.32861674,1.0897588,0.97097033,0.014202617,2.399784
210,2026-05-11 16:15:34.946872,-0.43270817,0.32861674,1.0897588,0.97097033,0.014202617,2.399784
211,2026-05-11 16:15:34.950141,-0.43270817,0.32861674,1.0897588,0.97097033,0.014202617,2.399784
212,2026-05-11 16:15:34.952964,-0.43270817,0.32861674,1.0897588,0.97097033,0.014202617,2.399784
213,2026-05-11 16:15:34.955852,-0.43270817,0.32861674,1.0897588,0.97097033,0.014202617,2.399784
214,2026-05-11 16:15:34.958575,-0.43270817,0.32861674,1.0897588,0.97097033,0.014202617,2.399784
215,2026-05-11 16:15:34.961218,-0.43270817,0.32861674,1.0897588,0.97097033,0.014202617,2.399784
216,2026-05-11 16:15:34.963955,-0.43270817,0.32861674,1.0897588,0.97097033,0.014202617,2.399784
217,2026-05-11 16:15:34.967180,-0.2874558,0.2909926,1.1667144,0.97097033,0.014202617,2.399784
218,2026-05-11 16:15:34.970059,-0.2874558,0.2909926,1.1667144,0.97097033,0.014202617,2.399784
219,2026-05-11 16:15:34.972761,-0.2874558,0.2909926,1.1667144,0.97097033,0.014202617,2.399784
220,2026-05-11 16:15:34.975296,-0.2874558,0.2909926,1.1667144,0.97097033,0.014202617,2.399784
221,2026-05-11 16:15:34.978061,-0.2874558,0.2909926,1.1667144,0.97097033,0.014202617,2.399784
222,2026-05-11 16:15:34.980811,-0.2874558,0.2909926,1.1667144,0.97097033,0.014202617,2.399784
223,2026-05-11 16:15:34.984081,-0.2874558,0.2909926,1.1667144,0.97097033,0.014202617,2.399784
224,2026-05-11 16:15:34.986801,-0.2874558,0.2909926,1.1667144,0.97097033,0.014202617,2.399784
225,2026-05-11 16:15:34.989431,-0.2874558,0.2909926,1.1667144,0.97097033,0.014202617,2.399784
226,2026-05-11 16:15:34.992009,-0.2874558,0.2909926,1.1667144,0.97097033,0.014202617,2.399784
227,2026-05-11 16:15:34.994783,-0.2874558,0.2909926,1.1667144,0.97097033,0.014202617,2.399784
228,2026-05-11 16:15:34.997370,-0.2874558,0.2909926,1.1667144,0.97097033,0.014202617,2.399784
229,2026-05-11 16:15:35.000612,-0.2874558,0.2909926,1.1667144,0.97097033,0.014202617,2.399784
230,2026-05-11 16:15:35.003418,-0.2874558,0.2909926,1.1667144,0.97097033,0.014202617,2.399784
231,2026-05-11 16:15:35.005977,-0.2874558,0.2909926,1.1667144,0.97097033,0.014202617,2.399784
232,2026-05-11 16:15:35.008560,-0.2874558,0.2909926,1.1667144,0.97097033,0.014202617,2.399784
233,2026-05-11 16:15:35.011324,-0.2874558,0.2909926,1.1667144,0.97097033,0.014202617,2.399784
234,2026-05-11 16:15:35.013994,-0.2874558,0.2909926,1.1667144,0.97097033,0.014202617,2.399784
235,2026-05-11 16:15:35.017162,-0.2874558,0.2909926,1.1667144,0.97097033,0.014202617,2.399784
236,2026-05-11 16:15:35.019886,-0.2874558,0.2909926,1.1667144,0.97097033,0.014202617,2.399784
237,2026-05-11 16:15:35.022531,-0.2874558,0.2909926,1.1667144,0.97097033,0.014202617,2.399784
238,2026-05-11 16:15:35.025208,-0.2874558,0.2909926,1.1667144,0.97097033,0.014202617,2.399784
239,2026-05-11 16:15:35.027859,-0.2874558,0.2909926,1.1667144,0.97097033,0.014202617,2.399784
240,2026-05-11 16:15:35.030627,-0.2874558,0.2909926,1.1667144,0.97097033,0.014202617,2.399784
241,2026-05-11 16:15:35.033868,-0.2874558,0.2909926,1.1667144,0.97097033,0.014202617,2.399784
242,2026-05-11 16:15:35.036633,-0.2874558,0.2909926,1.1667144,0.97097033,0.014202617,2.399784
243,2026-05-11 16:15:35.039158,-0.2874558,0.2909926,1.1667144,0.97097033,0.014202617,2.399784
244,2026-05-11 16:15:35.041961,-0.2874558,0.2909926,1.1667144,0.97097033,0.014202617,2.399784
245,2026-05-11 16:15:35.044528,-0.2874558,0.2909926,1.1667144,0.97097033,0.014202617,2.399784
246,2026-05-11 16:15:35.047410,-0.2874558,0.2909926,1.1667144,1.151481,0.2284636,2.410169
247,2026-05-11 16:15:35.050570,-0.2874558,0.2909926,1.1667144,1.151481,0.2284636,2.410169
248,2026-05-11 16:15:35.053254,-0.2874558,0.2909926,1.1667144,1.151481,0.2284636,2.410169
249,2026-05-11 16:15:35.055889,-0.2874558,0.2909926,1.1667144,1.151481,0.2284636,2.410169
250,2026-05-11 16:15:35.058966,-0.2874558,0.2909926,1.1667144,1.151481,0.2284636,2.410169
251,2026-05-11 16:15:35.062151,-0.2874558,0.2909926,1.1667144,1.151481,0.2284636,2.410169
252,2026-05-11 16:15:35.065231,-0.2874558,0.2909926,1.1667144,1.151481,0.2284636,2.410169
253,2026-05-11 16:15:35.068612,-0.2874558,0.2909926,1.1667144,1.151481,0.2284636,2.410169
254,2026-05-11 16:15:35.071394,-0.2874558,0.2909926,1.1667144,1.151481,0.2284636,2.410169
255,2026-05-11 16:15:35.074176,-0.2874558,0.2909926,1.1667144,1.151481,0.2284636,2.410169
256,2026-05-11 16:15:35.076851,-0.2874558,0.2909926,1.1667144,1.151481,0.2284636,2.410169
257,2026-05-11 16:15:35.079444,-0.2874558,0.2909926,1.1667144,1.151481,0.2284636,2.410169
258,2026-05-11 16:15:35.082419,-0.2874558,0.2909926,1.1667144,1.151481,0.2284636,2.410169
259,2026-05-11 16:15:35.085465,-0.2874558,0.2909926,1.1667144,1.151481,0.2284636,2.410169
260,2026-05-11 16:15:35.088481,-0.2874558,0.2909926,1.1667144,1.151481,0.2284636,2.410169
261,2026-05-11 16:15:35.091063,-0.2874558,0.2909926,1.1667144,1.151481,0.2284636,2.410169
262,2026-05-11 16:15:35.093907,-0.2874558,0.2909926,1.1667144,1.151481,0.2284636,2.410169
263,2026-05-11 16:15:35.096687,-0.2874558,0.2909926,1.1667144,1.151481,0.2284636,2.410169
264,2026-05-11 16:15:35.100362,-0.2874558,0.2909926,1.1667144,1.151481,0.2284636,2.410169
265,2026-05-11 16:15:35.103451,-0.2874558,0.2909926,1.1667144,1.151481,0.2284636,2.410169
266,2026-05-11 16:15:35.106314,-0.2874558,0.2909926,1.1667144,1.151481,0.2284636,2.410169
267,2026-05-11 16:15:35.109159,-0.2874558,0.2909926,1.1667144,1.151481,0.2284636,2.410169
268,2026-05-11 16:15:35.111868,-0.2874558,0.2909926,1.1667144,1.151481,0.2284636,2.410169
269,2026-05-11 16:15:35.114587,-0.2874558,0.2909926,1.1667144,1.151481,0.2284636,2.410169
270,2026-05-11 16:15:35.117759,-0.2874558,0.2909926,1.1667144,1.151481,0.2284636,2.410169
271,2026-05-11 16:15:35.120738,-0.2874558,0.2909926,1.1667144,1.151481,0.2284636,2.410169
272,2026-05-11 16:15:35.123389,-0.2874558,0.2909926,1.1667144,1.151481,0.2284636,2.410169
273,2026-05-11 16:15:35.125956,-0.2874558,0.2909926,1.1667144,1.151481,0.2284636,2.410169
274,2026-05-11 16:15:35.128797,-0.2874558,0.2909926,1.1667144,1.151481,0.2284636,2.410169
275,2026-05-11 16:15:35.131496,-0.2874558,0.2909926,1.1667144,1.151481,0.2284636,2.410169
276,2026-05-11 16:15:35.134478,-0.2874558,0.2909926,1.1667144,1.151481,0.2284636,2.410169
277,2026-05-11 16:15:35.137450,-0.2874558,0.2909926,1.1667144,1.151481,0.2284636,2.410169
278,2026-05-11 16:15:35.140059,-0.2874558,0.2909926,1.1667144,1.151481,0.2284636,2.410169
279,2026-05-11 16:15:35.142687,-0.2874558,0.2909926,1.1667144,1.151481,0.2284636,2.410169
280,2026-05-11 16:15:35.145532,-0.2874558,0.2909926,1.1667144,1.151481,0.2284636,2.410169
281,2026-05-11 16:15:35.148319,-0.2874558,0.2909926,1.1667144,1.151481,0.2284636,2.410169
282,2026-05-11 16:15:35.151566,-0.2874558,0.2909926,1.1667144,1.151481,0.2284636,2.410169
283,2026-05-11 16:15:35.154329,-0.2874558,0.2909926,1.1667144,1.151481,0.2284636,2.410169
284,2026-05-11 16:15:35.157146,-0.2874558,0.2909926,1.1667144,1.151481,0.2284636,2.410169
285,2026-05-11 16:15:35.159917,-0.2874558,0.2909926,1.1667144,1.151481,0.2284636,2.410169
286,2026-05-11 16:15:35.162641,-0.2874558,0.2909926,1.1667144,1.151481,0.2284636,2.410169
287,2026-05-11 16:15:35.165344,-0.2874558,0.2909926,1.1667144,1.151481,0.2284636,2.410169
288,2026-05-11 16:15:35.168719,-0.2874558,0.2909926,1.1667144,1.151481,0.2284636,2.410169
289,2026-05-11 16:15:35.171626,-0.2874558,0.2909926,1.1667144,1.151481,0.2284636,2.410169
290,2026-05-11 16:15:35.174301,-0.2874558,0.2909926,1.1667144,1.151481,0.2284636,2.410169
291,2026-05-11 16:15:35.176915,-0.2874558,0.2909926,1.1667144,1.151481,0.2284636,2.410169
292,2026-05-11 16:15:35.179793,-0.2874558,0.2909926,1.1667144,1.151481,0.2284636,2.410169
293,2026-05-11 16:15:35.183038,-0.2874558,0.2909926,1.1667144,1.151481,0.2284636,2.410169
294,2026-05-11 16:15:35.185932,-0.2874558,0.2909926,1.1667144,1.151481,0.2284636,2.410169
295,2026-05-11 16:15:35.188480,-0.2874558,0.2909926,1.1667144,1.151481,0.2284636,2.410169
296,2026-05-11 16:15:35.191405,-0.2874558,0.2909926,1.1667144,1.151481,0.2284636,2.410169
297,2026-05-11 16:15:35.194105,-0.2874558,0.2909926,1.1667144,1.151481,0.2284636,2.410169
298,2026-05-11 16:15:35.196803,-0.2874558,0.2909926,1.1667144,1.151481,0.2284636,2.410169
299,2026-05-11 16:15:35.200227,-0.2874558,0.2909926,1.1667144,1.151481,0.2284636,2.410169
300,2026-05-11 16:15:35.202999,-0.2874558,0.2909926,1.1667144,1.151481,0.2284636,2.410169
301,2026-05-11 16:15:35.205751,-0.2874558,0.2909926,1.1667144,1.151481,0.2284636,2.410169
302,2026-05-11 16:15:35.208435,-0.2874558,0.2909926,1.1667144,1.151481,0.2284636,2.410169
303,2026-05-11 16:15:35.211038,-0.2874558,0.2909926,1.1667144,1.151481,0.2284636,2.410169
304,2026-05-11 16:15:35.213909,-0.2874558,0.2909926,1.1667144,1.151481,0.2284636,2.410169
305,2026-05-11 16:15:35.217047,-0.2874558,0.2909926,1.1667144,1.151481,0.2284636,2.410169
306,2026-05-11 16:15:35.219794,-0.2874558,0.2909926,1.1667144,1.151481,0.2284636,2.410169
307,2026-05-11 16:15:35.222434,-0.2874558,0.2909926,1.1667144,1.151481,0.2284636,2.410169
308,2026-05-11 16:15:35.225113,-0.2874558,0.2909926,1.1667144,1.151481,0.2284636,2.410169
309,2026-05-11 16:15:35.227936,-0.2874558,0.2909926,1.1667144,1.151481,0.2284636,2.410169
310,2026-05-11 16:15:35.230522,-0.2874558,0.2909926,1.1667144,1.151481,0.2284636,2.410169
311,2026-05-11 16:15:35.233457,-0.2874558,0.2909926,1.1667144,1.151481,0.2284636,2.410169
312,2026-05-11 16:15:35.236422,-0.21659799,0.25483194,1.1220777,1.151481,0.2284636,2.410169
313,2026-05-11 16:15:35.239089,-0.21659799,0.25483194,1.1220777,1.151481,0.2284636,2.410169
314,2026-05-11 16:15:35.241761,-0.21659799,0.25483194,1.1220777,1.3547463,0.79458296,2.4043655
315,2026-05-11 16:15:35.244578,-0.21659799,0.25483194,1.1220777,1.3547463,0.79458296,2.4043655
316,2026-05-11 16:15:35.247153,-0.21659799,0.25483194,1.1220777,1.3547463,0.79458296,2.4043655
317,2026-05-11 16:15:35.250367,-0.21659799,0.25483194,1.1220777,1.3547463,0.79458296,2.4043655
318,2026-05-11 16:15:35.253154,-0.21659799,0.25483194,1.1220777,1.3547463,0.79458296,2.4043655
319,2026-05-11 16:15:35.255820,-0.20074342,0.27776012,1.0175594,1.3547463,0.79458296,2.4043655
320,2026-05-11 16:15:35.258657,-0.20074342,0.27776012,1.0175594,1.3547463,0.79458296,2.4043655
321,2026-05-11 16:15:35.261455,-0.20074342,0.27776012,1.0175594,1.3547463,0.79458296,2.4043655
322,2026-05-11 16:15:35.264162,-0.20074342,0.27776012,1.0175594,1.3547463,0.79458296,2.4043655
323,2026-05-11 16:15:35.267399,-0.20074342,0.27776012,1.0175594,1.3547463,0.79458296,2.4043655
324,2026-05-11 16:15:35.270288,-0.20074342,0.27776012,1.0175594,1.4552337,1.1684325,2.3881776
325,2026-05-11 16:15:35.273049,-0.20074342,0.27776012,1.0175594,1.4552337,1.1684325,2.3881776
326,2026-05-11 16:15:35.275816,-0.20074342,0.27776012,1.0175594,1.4552337,1.1684325,2.3881776
327,2026-05-11 16:15:35.278446,-0.20074342,0.27776012,1.0175594,1.4552337,1.1684325,2.3881776
328,2026-05-11 16:15:35.281064,-0.20074342,0.27776012,1.0175594,1.4552337,1.1684325,2.3881776
329,2026-05-11 16:15:35.284232,-0.20074342,0.27776012,1.0175594,1.4552337,1.1684325,2.3881776
330,2026-05-11 16:15:35.287131,-0.20074342,0.27776012,1.0175594,1.4552337,1.1684325,2.3881776
331,2026-05-11 16:15:35.289879,-0.20074342,0.27776012,1.0175594,1.4552337,1.1684325,2.3881776
332,2026-05-11 16:15:35.292709,-0.20074342,0.27776012,1.0175594,1.4552337,1.1684325,2.3881776
333,2026-05-11 16:15:35.295646,-0.20074342,0.27776012,1.0175594,1.4552337,1.1684325,2.3881776
334,2026-05-11 16:15:35.298301,-0.20074342,0.27776012,1.0175594,1.4552337,1.1684325,2.3881776
335,2026-05-11 16:15:35.301429,-0.20074342,0.27776012,1.0175594,1.4552337,1.1684325,2.3881776
336,2026-05-11 16:15:35.304462,-0.20074342,0.27776012,1.0175594,1.4552337,1.1684325,2.3881776
337,2026-05-11 16:15:35.307090,-0.20074342,0.27776012,1.0175594,1.4552337,1.1684325,2.3881776
338,2026-05-11 16:15:35.309752,-0.20074342,0.27776012,1.0175594,1.4552337,1.1684325,2.3881776
339,2026-05-11 16:15:35.312325,-0.20074342,0.27776012,1.0175594,1.4552337,1.1684325,2.3881776
340,2026-05-11 16:15:35.315088,-0.2063535,0.30806676,0.9095043,1.541213,1.3326025,2.3530529
341,2026-05-11 16:15:35.318674,-0.2063535,0.30806676,0.9095043,1.541213,1.3326025,2.3530529
342,2026-05-11 16:15:35.321407,-0.2063535,0.30806676,0.9095043,1.541213,1.3326025,2.3530529
343,2026-05-11 16:15:35.324002,-0.2063535,0.30806676,0.9095043,1.541213,1.3326025,2.3530529
344,2026-05-11 16:15:35.326539,-0.2063535,0.30806676,0.9095043,1.541213,1.3326025,2.3530529
345,2026-05-11 16:15:35.329364,-0.2063535,0.30806676,0.9095043,1.541213,1.3326025,2.3530529
346,2026-05-11 16:15:35.332686,-0.2063535,0.30806676,0.9095043,1.541213,1.3326025,2.3530529
347,2026-05-11 16:15:35.336026,-0.2063535,0.30806676,0.9095043,1.541213,1.3326025,2.3530529
348,2026-05-11 16:15:35.339312,-0.18312044,0.313189,0.7771795,1.6607898,1.2718215,2.3154848
349,2026-05-11 16:15:35.342495,-0.18312044,0.313189,0.7771795,1.6607898,1.2718215,2.3154848
350,2026-05-11 16:15:35.345514,-0.18312044,0.313189,0.7771795,1.6607898,1.2718215,2.3154848
351,2026-05-11 16:15:35.348721,-0.18312044,0.313189,0.7771795,1.6607898,1.2718215,2.3154848
352,2026-05-11 16:15:35.352511,-0.18312044,0.313189,0.7771795,1.6607898,1.2718215,2.3154848
353,2026-05-11 16:15:35.355480,-0.18312044,0.313189,0.7771795,1.6607898,1.2718215,2.3154848
354,2026-05-11 16:15:35.358319,-0.18312044,0.313189,0.7771795,1.6607898,1.2718215,2.3154848
355,2026-05-11 16:15:35.361442,-0.18312044,0.313189,0.7771795,1.6607898,1.2718215,2.3154848
356,2026-05-11 16:15:35.364552,-0.18312044,0.313189,0.7771795,1.6607898,1.2718215,2.3154848
357,2026-05-11 16:15:35.368352,-0.18312044,0.313189,0.7771795,1.6607898,1.2718215,2.3154848
358,2026-05-11 16:15:35.371843,-0.18312044,0.313189,0.7771795,1.6607898,1.2718215,2.3154848
359,2026-05-11 16:15:35.374584,-0.18312044,0.313189,0.7771795,1.6607898,1.2718215,2.3154848
360,2026-05-11 16:15:35.377201,-0.18312044,0.313189,0.7771795,1.6607898,1.2718215,2.3154848
361,2026-05-11 16:15:35.379807,-0.18312044,0.313189,0.7771795,1.6607898,1.2718215,2.3154848
362,2026-05-11 16:15:35.382628,-0.18312044,0.313189,0.7771795,1.6607898,1.2718215,2.3154848
363,2026-05-11 16:15:35.385358,-0.18312044,0.313189,0.7771795,1.6607898,1.2718215,2.3154848
364,2026-05-11 16:15:35.388362,-0.18312044,0.313189,0.7771795,1.6607898,1.2718215,2.3154848
365,2026-05-11 16:15:35.391192,-0.18312044,0.313189,0.7771795,1.6607898,1.2718215,2.3154848
366,2026-05-11 16:15:35.393914,-0.18312044,0.313189,0.7771795,1.6607898,1.2718215,2.3154848
367,2026-05-11 16:15:35.396477,-0.18312044,0.313189,0.7771795,1.6607898,1.2718215,2.3154848
368,2026-05-11 16:15:35.399973,-0.18312044,0.313189,0.7771795,1.6607898,1.2718215,2.3154848
369,2026-05-11 16:15:35.402889,-0.18312044,0.313189,0.7771795,1.7186694,1.1818715,2.2828035
370,2026-05-11 16:15:35.405837,-0.05427146,0.31050593,0.5464343,1.7090483,1.08902,2.151162
371,2026-05-11 16:15:35.408477,-0.05427146,0.31050593,0.5464343,1.7090483,1.08902,2.151162
372,2026-05-11 16:15:35.411047,-0.05427146,0.31050593,0.5464343,1.7090483,1.08902,2.151162
373,2026-05-11 16:15:35.432977,2.2753766,0.7188834,0.6161945,-0.3268129,-3.0309606,5.4415874
374,2026-05-11 16:15:35.440527,2.2753766,0.7188834,0.6161945,-0.3268129,-3.0309606,5.4415874
375,2026-05-11 16:15:35.446105,2.2753766,0.7188834,0.6161945,-0.3268129,-3.0309606,5.4415874
376,2026-05-11 16:15:35.451350,2.2753766,0.7188834,0.6161945,-0.3268129,-3.0309606,5.4415874
377,2026-05-11 16:15:35.454291,2.2753766,0.7188834,0.6161945,-0.3268129,-3.0309606,5.4415874
378,2026-05-11 16:15:35.456925,2.2753766,0.7188834,0.6161945,-0.3268129,-3.0309606,5.4415874
379,2026-05-11 16:15:35.459521,2.2753766,0.7188834,0.6161945,-0.3268129,-3.0309606,5.4415874
380,2026-05-11 16:15:35.462295,2.2753766,0.7188834,0.6161945,-0.3268129,-3.0309606,5.4415874
381,2026-05-11 16:15:35.465158,2.2753766,0.7188834,0.6161945,-0.3268129,-3.0309606,5.4415874
382,2026-05-11 16:15:35.468487,2.2753766,0.7188834,0.6161945,-0.3268129,-3.0309606,5.4415874
383,2026-05-11 16:15:35.471114,2.2753766,0.7188834,0.6161945,-0.3268129,-3.0309606,5.4415874
384,2026-05-11 16:15:35.473937,2.2753766,0.7188834,0.6161945,-0.3268129,-3.0309606,5.4415874
385,2026-05-11 16:15:35.476701,2.792846,1.0487807,0.66296554,-0.47861293,-2.818074,5.4599137
386,2026-05-11 16:15:35.479423,2.792846,1.0487807,0.66296554,-0.47861293,-2.818074,5.4599137
387,2026-05-11 16:15:35.482501,2.792846,1.0487807,0.66296554,-0.47861293,-2.818074,5.4599137
388,2026-05-11 16:15:35.485343,2.792846,1.0487807,0.66296554,-0.47861293,-2.818074,5.4599137
389,2026-05-11 16:15:35.488057,2.792846,1.0487807,0.66296554,-0.47861293,-2.818074,5.4599137
390,2026-05-11 16:15:35.490729,2.792846,1.0487807,0.66296554,-0.47861293,-2.818074,5.4599137
391,2026-05-11 16:15:35.493326,2.792846,1.0487807,0.66296554,-0.47861293,-2.818074,5.4599137
392,2026-05-11 16:15:35.496122,2.792846,1.0487807,0.66296554,-0.47861293,-2.818074,5.4599137
393,2026-05-11 16:15:35.499131,2.792846,1.0487807,0.66296554,-0.47861293,-2.818074,5.4599137
394,2026-05-11 16:15:35.502001,2.792846,1.0487807,0.66296554,-0.47861293,-2.818074,5.4599137
395,2026-05-11 16:15:35.504627,2.792846,1.0487807,0.66296554,-0.47861293,-2.818074,5.4599137
396,2026-05-11 16:15:35.507495,2.792846,1.0487807,0.66296554,-0.47861293,-2.818074,5.4599137
397,2026-05-11 16:15:35.510116,2.792846,1.0487807,0.66296554,-0.47861293,-2.818074,5.4599137
398,2026-05-11 16:15:35.512701,2.792846,1.0487807,0.66296554,-0.47861293,-2.818074,5.4599137
399,2026-05-11 16:15:35.515717,2.792846,1.0487807,0.66296554,-0.47861293,-2.818074,5.4599137
400,2026-05-11 16:15:35.518513,2.792846,1.0487807,0.66296554,-0.47861293,-2.818074,5.4599137
401,2026-05-11 16:15:35.521156,2.792846,1.0487807,0.66296554,-0.47861293,-2.818074,5.4599137
402,2026-05-11 16:15:35.523692,2.792846,1.0487807,0.66296554,-0.47861293,-2.818074,5.4599137
403,2026-05-11 16:15:35.526452,2.792846,1.0487807,0.66296554,-0.47861293,-2.818074,5.4599137
404,2026-05-11 16:15:35.529060,2.792846,1.0487807,0.66296554,-0.47861293,-2.818074,5.4599137
405,2026-05-11 16:15:35.531759,2.792846,1.0487807,0.66296554,-0.47861293,-2.818074,5.4599137
406,2026-05-11 16:15:35.534698,2.792846,1.0487807,0.66296554,-0.47861293,-2.818074,5.4599137
407,2026-05-11 16:15:35.537344,2.792846,1.0487807,0.66296554,-0.47861293,-2.818074,5.4599137
408,2026-05-11 16:15:35.539984,2.792846,1.0487807,0.66296554,-0.47861293,-2.818074,5.4599137
409,2026-05-11 16:15:35.542590,2.792846,1.0487807,0.66296554,-0.47861293,-2.818074,5.4599137
410,2026-05-11 16:15:35.545250,2.792846,1.0487807,0.66296554,-0.47861293,-2.818074,5.4599137
411,2026-05-11 16:15:35.547781,2.792846,1.0487807,0.66296554,-0.47861293,-2.818074,5.4599137
412,2026-05-11 16:15:35.550852,2.792846,1.0487807,0.66296554,-0.47861293,-2.818074,5.4599137
413,2026-05-11 16:15:35.553447,2.792846,1.0487807,0.66296554,-0.47861293,-2.818074,5.4599137
414,2026-05-11 16:15:35.556004,2.792846,1.0487807,0.66296554,-0.47861293,-2.818074,5.4599137
415,2026-05-11 16:15:35.558580,2.792846,1.0487807,0.66296554,-0.47861293,-2.818074,5.4599137
416,2026-05-11 16:15:35.561084,2.792846,1.0487807,0.66296554,-0.47861293,-2.818074,5.4599137
417,2026-05-11 16:15:35.563602,2.792846,1.0487807,0.66296554,-0.47861293,-2.818074,5.4599137
418,2026-05-11 16:15:35.566596,2.792846,1.0487807,0.66296554,-0.47861293,-2.818074,5.4599137
419,2026-05-11 16:15:35.569217,2.792846,1.0487807,0.66296554,-0.47861293,-2.818074,5.4599137
420,2026-05-11 16:15:35.572079,2.792846,1.0487807,0.66296554,-0.47861293,-2.818074,5.4599137
421,2026-05-11 16:15:35.574740,2.792846,1.0487807,0.66296554,-0.47861293,-2.818074,5.4599137
422,2026-05-11 16:15:35.577322,2.792846,1.0487807,0.66296554,-0.47861293,-2.818074,5.4599137
423,2026-05-11 16:15:35.579877,2.792846,1.0487807,0.66296554,-0.47861293,-2.818074,5.4599137
424,2026-05-11 16:15:35.582873,2.792846,1.0487807,0.66296554,-0.47861293,-2.818074,5.4599137
425,2026-05-11 16:15:35.585741,2.792846,1.0487807,0.66296554,-1.3211488,-1.6991217,4.798499
426,2026-05-11 16:15:35.588534,2.792846,1.0487807,0.66296554,-1.3211488,-1.6991217,4.798499
427,2026-05-11 16:15:35.591199,2.792846,1.0487807,0.66296554,-1.3211488,-1.6991217,4.798499
428,2026-05-11 16:15:35.594055,2.792846,1.0487807,0.66296554,-1.3211488,-1.6991217,4.798499
429,2026-05-11 16:15:35.596676,2.792846,1.0487807,0.66296554,-1.3211488,-1.6991217,4.798499
430,2026-05-11 16:15:35.599702,2.792846,1.0487807,0.66296554,-1.3211488,-1.6991217,4.798499
431,2026-05-11 16:15:35.602492,2.792846,1.0487807,0.66296554,-1.3211488,-1.6991217,4.798499
432,2026-05-11 16:15:35.605048,2.792846,1.0487807,0.66296554,-1.3211488,-1.6991217,4.798499
433,2026-05-11 16:15:35.607740,2.792846,1.0487807,0.66296554,-1.3211488,-1.6991217,4.798499
434,2026-05-11 16:15:35.610315,2.792846,1.0487807,0.66296554,-1.3211488,-1.6991217,4.798499
435,2026-05-11 16:15:35.612840,2.792846,1.0487807,0.66296554,-1.3211488,-1.6991217,4.798499
436,2026-05-11 16:15:35.615861,2.792846,1.0487807,0.66296554,-1.3211488,-1.6991217,4.798499
437,2026-05-11 16:15:35.618494,2.792846,1.0487807,0.66296554,-1.3211488,-1.6991217,4.798499
438,2026-05-11 16:15:35.621041,2.792846,1.0487807,0.66296554,-1.3211488,-1.6991217,4.798499
439,2026-05-11 16:15:35.623713,2.792846,1.0487807,0.66296554,-1.3211488,-1.6991217,4.798499
440,2026-05-11 16:15:35.626269,2.792846,1.0487807,0.66296554,-1.3211488,-1.6991217,4.798499
441,2026-05-11 16:15:35.628834,2.792846,1.0487807,0.66296554,-1.3211488,-1.6991217,4.798499
442,2026-05-11 16:15:35.631448,3.8194304,1.7935802,0.7537635,-1.3211488,-1.6991217,4.798499
443,2026-05-11 16:15:35.634366,3.8194304,1.7935802,0.7537635,-1.3211488,-1.6991217,4.798499
444,2026-05-11 16:15:35.636999,3.8194304,1.7935802,0.7537635,-1.3211488,-1.6991217,4.798499
445,2026-05-11 16:15:35.639561,3.8194304,1.7935802,0.7537635,-1.3211488,-1.6991217,4.798499
446,2026-05-11 16:15:35.642158,3.8194304,1.7935802,0.7537635,-1.3211488,-1.6991217,4.798499
447,2026-05-11 16:15:35.644987,3.8194304,1.7935802,0.7537635,-1.3211488,-1.6991217,4.798499
448,2026-05-11 16:15:35.647604,3.8194304,1.7935802,0.7537635,-1.3211488,-1.6991217,4.798499
449,2026-05-11 16:15:35.650635,3.8194304,1.7935802,0.7537635,-1.3211488,-1.6991217,4.798499
450,2026-05-11 16:15:35.653509,3.8194304,1.7935802,0.7537635,-1.3211488,-1.6991217,4.798499
451,2026-05-11 16:15:35.656161,3.8194304,1.7935802,0.7537635,-1.3211488,-1.6991217,4.798499
452,2026-05-11 16:15:35.658898,3.8194304,1.7935802,0.7537635,-1.3211488,-1.6991217,4.798499
453,2026-05-11 16:15:35.661568,3.8194304,1.7935802,0.7537635,-1.3211488,-1.6991217,4.798499
454,2026-05-11 16:15:35.664205,3.8194304,1.7935802,0.7537635,-1.3211488,-1.6991217,4.798499
455,2026-05-11 16:15:35.667203,3.8194304,1.7935802,0.7537635,-1.3211488,-1.6991217,4.798499
456,2026-05-11 16:15:35.670134,3.662348,2.2562292,1.7018065,-2.5364652,0.43279803,1.9265163
457,2026-05-11 16:15:35.672836,3.662348,2.2562292,1.7018065,-2.5364652,0.43279803,1.9265163
458,2026-05-11 16:15:35.675444,3.662348,2.2562292,1.7018065,-2.5364652,0.43279803,1.9265163
459,2026-05-11 16:15:35.678189,3.662348,2.2562292,1.7018065,-2.5364652,0.43279803,1.9265163
460,2026-05-11 16:15:35.680869,3.662348,2.2562292,1.7018065,-2.5364652,0.43279803,1.9265163
461,2026-05-11 16:15:35.684138,3.662348,2.2562292,1.7018065,-2.5364652,0.43279803,1.9265163
462,2026-05-11 16:15:35.686784,3.662348,2.2562292,1.7018065,-2.5364652,0.43279803,1.9265163
463,2026-05-11 16:15:35.689506,3.662348,2.2562292,1.7018065,-2.5364652,0.43279803,1.9265163
464,2026-05-11 16:15:35.692110,3.662348,2.2562292,1.7018065,-2.5364652,0.43279803,1.9265163
465,2026-05-11 16:15:35.694801,3.662348,2.2562292,1.7018065,-2.5364652,0.43279803,1.9265163
466,2026-05-11 16:15:35.697374,3.662348,2.2562292,1.7018065,-2.5364652,0.43279803,1.9265163
467,2026-05-11 16:15:35.700493,3.662348,2.2562292,1.7018065,-2.5364652,0.43279803,1.9265163
468,2026-05-11 16:15:35.703442,3.662348,2.2562292,1.7018065,-2.5364652,0.43279803,1.9265163
469,2026-05-11 16:15:35.706080,3.662348,2.2562292,1.7018065,-2.5364652,0.43279803,1.9265163
470,2026-05-11 16:15:35.708648,3.662348,2.2562292,1.7018065,-2.5364652,0.43279803,1.9265163
471,2026-05-11 16:15:35.711445,3.662348,2.2562292,1.7018065,-2.5364652,0.43279803,1.9265163
472,2026-05-11 16:15:35.714059,3.662348,2.2562292,1.7018065,-2.5364652,0.43279803,1.9265163
473,2026-05-11 16:15:35.717158,3.662348,2.2562292,1.7018065,-2.5364652,0.43279803,1.9265163
474,2026-05-11 16:15:35.719859,3.662348,2.2562292,1.7018065,-2.5364652,0.43279803,1.9265163
475,2026-05-11 16:15:35.722421,3.662348,2.2562292,1.7018065,-2.5364652,0.43279803,1.9265163
476,2026-05-11 16:15:35.725277,3.662348,2.2562292,1.7018065,-2.5364652,0.43279803,1.9265163
477,2026-05-11 16:15:35.727863,3.662348,2.2562292,1.7018065,-2.5364652,0.43279803,1.9265163
478,2026-05-11 16:15:35.730506,3.662348,2.2562292,1.7018065,-2.5364652,0.43279803,1.9265163
479,2026-05-11 16:15:35.733443,3.662348,2.2562292,1.7018065,-2.5364652,0.43279803,1.9265163
480,2026-05-11 16:15:35.736287,3.662348,2.2562292,1.7018065,-2.5364652,0.43279803,1.9265163
481,2026-05-11 16:15:35.738866,3.662348,2.2562292,1.7018065,-2.5364652,0.43279803,1.9265163
482,2026-05-11 16:15:35.741411,3.662348,2.2562292,1.7018065,-2.5364652,0.43279803,1.9265163
483,2026-05-11 16:15:35.744114,3.662348,2.2562292,1.7018065,-2.5364652,0.43279803,1.9265163
484,2026-05-11 16:15:35.746692,3.662348,2.2562292,1.7018065,-2.5364652,0.43279803,1.9265163
485,2026-05-11 16:15:35.749533,3.662348,2.2562292,1.7018065,-2.5364652,0.43279803,1.9265163
486,2026-05-11 16:15:35.752694,3.662348,2.2562292,1.7018065,-2.5364652,0.43279803,1.9265163
487,2026-05-11 16:15:35.755572,3.662348,2.2562292,1.7018065,-2.5364652,0.43279803,1.9265163
488,2026-05-11 16:15:35.758140,3.662348,2.2562292,1.7018065,-2.5364652,0.43279803,1.9265163
489,2026-05-11 16:15:35.760708,3.662348,2.2562292,1.7018065,-2.5364652,0.43279803,1.9265163
490,2026-05-11 16:15:35.763244,3.662348,2.2562292,1.7018065,-2.5364652,0.43279803,1.9265163
491,2026-05-11 16:15:35.765929,3.662348,2.2562292,1.7018065,-2.5364652,0.43279803,1.9265163
492,2026-05-11 16:15:35.769387,3.662348,2.2562292,1.7018065,-2.5364652,0.43279803,1.9265163
493,2026-05-11 16:15:35.772116,3.662348,2.2562292,1.7018065,-2.5364652,0.43279803,1.9265163
494,2026-05-11 16:15:35.774882,3.662348,2.2562292,1.7018065,-2.5364652,0.43279803,1.9265163
495,2026-05-11 16:15:35.777471,3.662348,2.2562292,1.7018065,-2.5364652,0.43279803,1.9265163
496,2026-05-11 16:15:35.780281,3.662348,2.2562292,1.7018065,-2.5364652,0.43279803,1.9265163
497,2026-05-11 16:15:35.783290,3.662348,2.2562292,1.7018065,-2.5364652,0.43279803,1.9265163
498,2026-05-11 16:15:35.786021,3.662348,2.2562292,1.7018065,-2.5364652,0.43279803,1.9265163
499,2026-05-11 16:15:35.788611,3.662348,2.2562292,1.7018065,-2.5364652,0.43279803,1.9265163
500,2026-05-11 16:15:35.791336,3.662348,2.2562292,1.7018065,-2.5364652,0.43279803,1.9265163
501,2026-05-11 16:15:35.793942,3.662348,2.2562292,1.7018065,-2.5364652,0.43279803,1.9265163
502,2026-05-11 16:15:35.796611,3.662348,2.2562292,1.7018065,-2.5364652,0.43279803,1.9265163
503,2026-05-11 16:15:35.799576,3.662348,2.2562292,1.7018065,-2.5364652,0.43279803,1.9265163
504,2026-05-11 16:15:35.802424,3.662348,2.2562292,1.7018065,-2.5364652,0.43279803,1.9265163
505,2026-05-11 16:15:35.805158,3.662348,2.2562292,1.7018065,-1.999362,0.8196284,1.1927143
506,2026-05-11 16:15:35.807742,3.662348,2.2562292,1.7018065,-1.999362,0.8196284,1.1927143
507,2026-05-11 16:15:35.810538,3.662348,2.2562292,1.7018065,-1.999362,0.8196284,1.1927143
508,2026-05-11 16:15:35.813087,3.662348,2.2562292,1.7018065,-1.999362,0.8196284,1.1927143
509,2026-05-11 16:15:35.816345,3.662348,2.2562292,1.7018065,-1.999362,0.8196284,1.1927143
510,2026-05-11 16:15:35.819061,3.662348,2.2562292,1.7018065,-1.999362,0.8196284,1.1927143
511,2026-05-11 16:15:35.821653,3.662348,2.2562292,1.7018065,-1.999362,0.8196284,1.1927143
512,2026-05-11 16:15:35.824226,3.662348,2.2562292,1.7018065,-1.999362,0.8196284,1.1927143
513,2026-05-11 16:15:35.826770,3.662348,2.2562292,1.7018065,-1.999362,0.8196284,1.1927143
514,2026-05-11 16:15:35.829587,3.662348,2.2562292,1.7018065,-1.999362,0.8196284,1.1927143
515,2026-05-11 16:15:35.832795,3.662348,2.2562292,1.7018065,-1.999362,0.8196284,1.1927143
516,2026-05-11 16:15:35.835766,3.662348,2.2562292,1.7018065,-1.999362,0.8196284,1.1927143
517,2026-05-11 16:15:35.838445,3.1162794,2.2395818,2.2205563,-1.999362,0.8196284,1.1927143
518,2026-05-11 16:15:35.841034,3.1162794,2.2395818,2.2205563,-1.999362,0.8196284,1.1927143
519,2026-05-11 16:15:35.843827,3.1162794,2.2395818,2.2205563,-1.999362,0.8196284,1.1927143
520,2026-05-11 16:15:35.846454,3.1162794,2.2395818,2.2205563,-1.999362,0.8196284,1.1927143
521,2026-05-11 16:15:35.849264,3.1162794,2.2395818,2.2205563,-1.999362,0.8196284,1.1927143
522,2026-05-11 16:15:35.852112,3.1162794,2.2395818,2.2205563,-1.999362,0.8196284,1.1927143
523,2026-05-11 16:15:35.854656,3.1162794,2.2395818,2.2205563,-1.999362,0.8196284,1.1927143
524,2026-05-11 16:15:35.857533,3.1162794,2.2395818,2.2205563,-1.999362,0.8196284,1.1927143
525,2026-05-11 16:15:35.860155,3.1162794,2.2395818,2.2205563,-1.999362,0.8196284,1.1927143
526,2026-05-11 16:15:35.862997,3.1162794,2.2395818,2.2205563,-1.999362,0.8196284,1.1927143
527,2026-05-11 16:15:35.866141,3.1162794,2.2395818,2.2205563,-1.999362,0.8196284,1.1927143
528,2026-05-11 16:15:35.868951,3.1162794,2.2395818,2.2205563,-1.999362,0.8196284,1.1927143
529,2026-05-11 16:15:35.871624,3.1162794,2.2395818,2.2205563,-1.999362,0.8196284,1.1927143
530,2026-05-11 16:15:35.874210,3.1162794,2.2395818,2.2205563,-1.999362,0.8196284,1.1927143
531,2026-05-11 16:15:35.877036,3.1162794,2.2395818,2.2205563,-1.999362,0.8196284,1.1927143
532,2026-05-11 16:15:35.879717,3.1162794,2.2395818,2.2205563,-1.999362,0.8196284,1.1927143
533,2026-05-11 16:15:35.882604,3.1162794,2.2395818,2.2205563,-1.999362,0.8196284,1.1927143
534,2026-05-11 16:15:35.885486,3.1162794,2.2395818,2.2205563,-1.999362,0.8196284,1.1927143
535,2026-05-11 16:15:35.888259,3.1162794,2.2395818,2.2205563,-1.999362,0.8196284,1.1927143
536,2026-05-11 16:15:35.890948,3.1162794,2.2395818,2.2205563,-1.999362,0.8196284,1.1927143
537,2026-05-11 16:15:35.893615,3.1162794,2.2395818,2.2205563,-1.999362,0.8196284,1.1927143
538,2026-05-11 16:15:35.896152,3.1162794,2.2395818,2.2205563,-1.999362,0.8196284,1.1927143
539,2026-05-11 16:15:35.899277,3.1162794,2.2395818,2.2205563,-1.999362,0.8196284,1.1927143
540,2026-05-11 16:15:35.902068,3.1162794,2.2395818,2.2205563,-1.999362,0.8196284,1.1927143
541,2026-05-11 16:15:35.904819,3.1162794,2.2395818,2.2205563,-1.999362,0.8196284,1.1927143
542,2026-05-11 16:15:35.907420,3.1162794,2.2395818,2.2205563,-1.999362,0.8196284,1.1927143
543,2026-05-11 16:15:35.910259,3.1162794,2.2395818,2.2205563,-1.999362,0.8196284,1.1927143
544,2026-05-11 16:15:35.912858,3.1162794,2.2395818,2.2205563,-1.999362,0.8196284,1.1927143
545,2026-05-11 16:15:35.915939,3.1162794,2.2395818,2.2205563,-1.999362,0.8196284,1.1927143
546,2026-05-11 16:15:35.918828,3.1162794,2.2395818,2.2205563,-1.999362,0.8196284,1.1927143
547,2026-05-11 16:15:35.921449,3.1162794,2.2395818,2.2205563,-1.999362,0.8196284,1.1927143
548,2026-05-11 16:15:35.924202,3.1162794,2.2395818,2.2205563,-1.999362,0.8196284,1.1927143
549,2026-05-11 16:15:35.926836,2.692779,2.1985428,2.3453197,-1.999362,0.8196284,1.1927143
550,2026-05-11 16:15:35.929618,2.692779,2.1985428,2.3453197,-1.999362,0.8196284,1.1927143
551,2026-05-11 16:15:35.932895,2.692779,2.1985428,2.3453197,-1.999362,0.8196284,1.1927143
552,2026-05-11 16:15:35.935751,2.692779,2.1985428,2.3453197,-1.999362,0.8196284,1.1927143
553,2026-05-11 16:15:35.938345,2.692779,2.1985428,2.3453197,-1.999362,0.8196284,1.1927143
554,2026-05-11 16:15:35.941191,2.692779,2.1985428,2.3453197,-1.999362,0.8196284,1.1927143
555,2026-05-11 16:15:35.943845,2.692779,2.1985428,2.3453197,-1.999362,0.8196284,1.1927143
556,2026-05-11 16:15:35.946593,2.692779,2.1985428,2.3453197,-1.999362,0.8196284,1.1927143
557,2026-05-11 16:15:35.949596,2.692779,2.1985428,2.3453197,-1.999362,0.8196284,1.1927143
558,2026-05-11 16:15:35.952684,2.692779,2.1985428,2.3453197,-1.999362,0.8196284,1.1927143
559,2026-05-11 16:15:35.955490,2.692779,2.1985428,2.3453197,-1.999362,0.8196284,1.1927143
560,2026-05-11 16:15:35.958256,2.692779,2.1985428,2.3453197,-1.3359623,0.869414,0.99280876
561,2026-05-11 16:15:35.960857,2.692779,2.1985428,2.3453197,-1.3359623,0.869414,0.99280876
562,2026-05-11 16:15:35.963520,2.692779,2.1985428,2.3453197,-1.3359623,0.869414,0.99280876
563,2026-05-11 16:15:35.966480,2.692779,2.1985428,2.3453197,-1.3359623,0.869414,0.99280876
564,2026-05-11 16:15:35.969276,2.692779,2.1985428,2.3453197,-1.3359623,0.869414,0.99280876
565,2026-05-11 16:15:35.971843,2.692779,2.1985428,2.3453197,-1.3359623,0.869414,0.99280876
566,2026-05-11 16:15:35.974519,2.692779,2.1985428,2.3453197,-1.3359623,0.869414,0.99280876
567,2026-05-11 16:15:35.977103,2.692779,2.1985428,2.3453197,-1.3359623,0.869414,0.99280876
568,2026-05-11 16:15:35.979613,2.692779,2.1985428,2.3453197,-1.3359623,0.869414,0.99280876
569,2026-05-11 16:15:35.982562,2.692779,2.1985428,2.3453197,-1.3359623,0.869414,0.99280876
570,2026-05-11 16:15:35.985333,2.692779,2.1985428,2.3453197,-1.3359623,0.869414,0.99280876
571,2026-05-11 16:15:35.987894,2.692779,2.1985428,2.3453197,-1.3359623,0.869414,0.99280876
572,2026-05-11 16:15:35.990591,2.692779,2.1985428,2.3453197,-1.3359623,0.869414,0.99280876
573,2026-05-11 16:15:35.993197,2.692779,2.1985428,2.3453197,-1.3359623,0.869414,0.99280876
574,2026-05-11 16:15:35.995763,2.692779,2.1985428,2.3453197,-1.3359623,0.869414,0.99280876
575,2026-05-11 16:15:35.998541,2.692779,2.1985428,2.3453197,-1.3359623,0.869414,0.99280876
576,2026-05-11 16:15:36.001695,2.3877003,2.2051287,2.1703095,-1.3359623,0.869414,0.99280876
577,2026-05-11 16:15:36.004354,2.3877003,2.2051287,2.1703095,-1.3359623,0.869414,0.99280876
578,2026-05-11 16:15:36.006964,2.3877003,2.2051287,2.1703095,-1.3359623,0.869414,0.99280876
579,2026-05-11 16:15:36.009609,2.3877003,2.2051287,2.1703095,-1.3359623,0.869414,0.99280876
580,2026-05-11 16:15:36.012264,2.4105065,2.2471433,2.013776,0.38133264,0.7498371,0.7987063
581,2026-05-11 16:15:36.014827,2.4105065,2.2471433,2.013776,0.38133264,0.7498371,0.7987063
582,2026-05-11 16:15:36.018142,2.4105065,2.2471433,2.013776,0.38133264,0.7498371,0.7987063
583,2026-05-11 16:15:36.020764,2.4105065,2.2471433,2.013776,0.38133264,0.7498371,0.7987063
584,2026-05-11 16:15:36.023362,2.4105065,2.2471433,2.013776,0.38133264,0.7498371,0.7987063
585,2026-05-11 16:15:36.025957,2.4105065,2.2471433,2.013776,0.38133264,0.7498371,0.7987063
586,2026-05-11 16:15:36.028538,2.4105065,2.2471433,2.013776,0.38133264,0.7498371,0.7987063
587,2026-05-11 16:15:36.031093,2.4105065,2.2471433,2.013776,0.38133264,0.7498371,0.7987063
588,2026-05-11 16:15:36.034368,2.4105065,2.2471433,2.013776,0.38133264,0.7498371,0.7987063
589,2026-05-11 16:15:36.037106,2.4105065,2.2471433,2.013776,0.38133264,0.7498371,0.7987063
590,2026-05-11 16:15:36.039716,2.4105065,2.2471433,2.013776,0.38133264,0.7498371,0.7987063
591,2026-05-11 16:15:36.042454,2.4105065,2.2471433,2.013776,0.38133264,0.7498371,0.7987063
592,2026-05-11 16:15:36.045009,2.4105065,2.2471433,2.013776,0.38133264,0.7498371,0.7987063
593,2026-05-11 16:15:36.047791,2.4105065,2.2471433,2.013776,0.38133264,0.7498371,0.7987063
594,2026-05-11 16:15:36.050946,2.4105065,2.2471433,2.013776,0.38133264,0.7498371,0.7987063
595,2026-05-11 16:15:36.053733,2.4105065,2.2471433,2.013776,0.38133264,0.7498371,0.7987063
596,2026-05-11 16:15:36.056436,2.4105065,2.2471433,2.013776,0.38133264,0.7498371,0.7987063
597,2026-05-11 16:15:36.059030,2.4105065,2.2471433,2.013776,0.38133264,0.7498371,0.7987063
598,2026-05-11 16:15:36.061721,2.4105065,2.2471433,2.013776,0.38133264,0.7498371,0.7987063
599,2026-05-11 16:15:36.064297,2.4105065,2.2471433,2.013776,0.38133264,0.7498371,0.7987063
600,2026-05-11 16:15:36.067188,2.4105065,2.2471433,2.013776,0.38133264,0.7498371,0.7987063
601,2026-05-11 16:15:36.070023,2.4105065,2.2471433,2.013776,0.38133264,0.7498371,0.7987063
602,2026-05-11 16:15:36.072637,2.4105065,2.2471433,2.013776,0.38133264,0.7498371,0.7987063
603,2026-05-11 16:15:36.075199,2.4105065,2.2471433,2.013776,0.38133264,0.7498371,0.7987063
604,2026-05-11 16:15:36.077882,2.4105065,2.2471433,2.013776,0.38133264,0.7498371,0.7987063
605,2026-05-11 16:15:36.080443,2.4105065,2.2471433,2.013776,0.38133264,0.7498371,0.7987063
606,2026-05-11 16:15:36.083528,2.4105065,2.2471433,2.013776,0.38133264,0.7498371,0.7987063
607,2026-05-11 16:15:36.086334,2.4105065,2.2471433,2.013776,0.38133264,0.7498371,0.7987063
608,2026-05-11 16:15:36.088998,2.4105065,2.2471433,2.013776,0.38133264,0.7498371,0.7987063
609,2026-05-11 16:15:36.091710,2.4105065,2.2471433,2.013776,0.99097615,0.6782131,0.68310004
610,2026-05-11 16:15:36.094385,2.4105065,2.2471433,2.013776,0.99097615,0.6782131,0.68310004
611,2026-05-11 16:15:36.096964,2.4105065,2.2471433,2.013776,0.99097615,0.6782131,0.68310004
612,2026-05-11 16:15:36.100264,2.4105065,2.2471433,2.013776,0.99097615,0.6782131,0.68310004
613,2026-05-11 16:15:36.102998,2.4105065,2.2471433,2.013776,0.99097615,0.6782131,0.68310004
614,2026-05-11 16:15:36.105671,2.4105065,2.2471433,2.013776,0.99097615,0.6782131,0.68310004
615,2026-05-11 16:15:36.108370,2.4105065,2.2471433,2.013776,0.99097615,0.6782131,0.68310004
616,2026-05-11 16:15:36.111030,2.4105065,2.2471433,2.013776,1.7484491,0.6966918,0.2603813
617,2026-05-11 16:15:36.113642,2.4105065,2.2471433,2.013776,1.7484491,0.6966918,0.2603813
618,2026-05-11 16:15:36.116645,2.4105065,2.2471433,2.013776,1.7484491,0.6966918,0.2603813
619,2026-05-11 16:15:36.119391,2.4105065,2.2471433,2.013776,1.7484491,0.6966918,0.2603813
620,2026-05-11 16:15:36.121977,2.4105065,2.2471433,2.013776,1.7484491,0.6966918,0.2603813
621,2026-05-11 16:15:36.124591,2.4105065,2.2471433,2.013776,1.7484491,0.6966918,0.2603813
622,2026-05-11 16:15:36.127131,2.4105065,2.2471433,2.013776,1.7484491,0.6966918,0.2603813
623,2026-05-11 16:15:36.129888,2.490694,2.31294,1.7158319,1.7484491,0.6966918,0.2603813
624,2026-05-11 16:15:36.132911,2.490694,2.31294,1.7158319,1.7484491,0.6966918,0.2603813
625,2026-05-11 16:15:36.135823,2.490694,2.31294,1.7158319,1.7484491,0.6966918,0.2603813
626,2026-05-11 16:15:36.138519,2.490694,2.31294,1.7158319,1.7484491,0.6966918,0.2603813
627,2026-05-11 16:15:36.141122,2.490694,2.31294,1.7158319,1.7484491,0.6966918,0.2603813
628,2026-05-11 16:15:36.143786,2.490694,2.31294,1.7158319,1.7484491,0.6966918,0.2603813
629,2026-05-11 16:15:36.146316,2.490694,2.31294,1.7158319,1.7484491,0.6966918,0.2603813
630,2026-05-11 16:15:36.149417,2.490694,2.31294,1.7158319,1.7484491,0.6966918,0.2603813
631,2026-05-11 16:15:36.152195,2.490694,2.31294,1.7158319,1.7484491,0.6966918,0.2603813
632,2026-05-11 16:15:36.154765,2.490694,2.31294,1.7158319,1.7484491,0.6966918,0.2603813
633,2026-05-11 16:15:36.157326,2.490694,2.31294,1.7158319,1.7484491,0.6966918,0.2603813
634,2026-05-11 16:15:36.160024,2.490694,2.31294,1.7158319,1.7484491,0.6966918,0.2603813
635,2026-05-11 16:15:36.162618,2.490694,2.31294,1.7158319,1.7484491,0.6966918,0.2603813
636,2026-05-11 16:15:36.165414,2.490694,2.31294,1.7158319,1.7484491,0.6966918,0.2603813
637,2026-05-11 16:15:36.168583,2.490694,2.31294,1.7158319,1.7484491,0.6966918,0.2603813
638,2026-05-11 16:15:36.171552,2.490694,2.31294,1.7158319,1.7484491,0.6966918,0.2603813
639,2026-05-11 16:15:36.174139,2.490694,2.31294,1.7158319,1.7484491,0.6966918,0.2603813
640,2026-05-11 16:15:36.176927,2.490694,2.31294,1.7158319,1.7484491,0.6966918,0.2603813
641,2026-05-11 16:15:36.179524,2.490694,2.31294,1.7158319,1.7484491,0.6966918,0.2603813
642,2026-05-11 16:15:36.182196,2.490694,2.31294,1.7158319,1.7484491,0.6966918,0.2603813
643,2026-05-11 16:15:36.185756,2.490694,2.31294,1.7158319,1.7484491,0.6966918,0.2603813
644,2026-05-11 16:15:36.188758,2.490694,2.31294,1.7158319,1.7484491,0.6966918,0.2603813
645,2026-05-11 16:15:36.191432,2.490694,2.31294,1.7158319,1.7484491,0.6966918,0.2603813
646,2026-05-11 16:15:36.194049,2.490694,2.31294,1.7158319,1.7484491,0.6966918,0.2603813
647,2026-05-11 16:15:36.196776,2.490694,2.31294,1.7158319,1.7484491,0.6966918,0.2603813
648,2026-05-11 16:15:36.199727,2.490694,2.31294,1.7158319,1.7484491,0.6966918,0.2603813
649,2026-05-11 16:15:36.202425,2.490694,2.31294,1.7158319,1.7484491,0.6966918,0.2603813
650,2026-05-11 16:15:36.205029,2.490694,2.31294,1.7158319,1.7484491,0.6966918,0.2603813
651,2026-05-11 16:15:36.207650,2.490694,2.31294,1.7158319,1.7484491,0.6966918,0.2603813
652,2026-05-11 16:15:36.210610,2.490694,2.31294,1.7158319,1.7484491,0.6966918,0.2603813
653,2026-05-11 16:15:36.213194,2.490694,2.31294,1.7158319,1.7484491,0.6966918,0.2603813
654,2026-05-11 16:15:36.216557,2.490694,2.31294,1.7158319,1.7484491,0.6966918,0.2603813
655,2026-05-11 16:15:36.219486,2.490694,2.31294,1.7158319,1.7484491,0.6966918,0.2603813
656,2026-05-11 16:15:36.222320,2.5152078,2.3815415,1.4220343,1.7484491,0.6966918,0.2603813
657,2026-05-11 16:15:36.225059,2.5152078,2.3815415,1.4220343,1.7484491,0.6966918,0.2603813
658,2026-05-11 16:15:36.227795,2.5152078,2.3815415,1.4220343,1.7484491,0.6966918,0.2603813
659,2026-05-11 16:15:36.230385,2.5152078,2.3815415,1.4220343,1.7484491,0.6966918,0.2603813
660,2026-05-11 16:15:36.233505,2.5152078,2.3815415,1.4220343,1.7484491,0.6966918,0.2603813
661,2026-05-11 16:15:36.236362,2.5152078,2.3815415,1.4220343,1.7484491,0.6966918,0.2603813
662,2026-05-11 16:15:36.239100,2.5152078,2.3815415,1.4220343,1.7484491,0.6966918,0.2603813
663,2026-05-11 16:15:36.242069,2.5152078,2.3815415,1.4220343,2.1545217,0.91919947,-0.37323865
664,2026-05-11 16:15:36.244701,2.5152078,2.3815415,1.4220343,2.1545217,0.91919947,-0.37323865
665,2026-05-11 16:15:36.247383,2.5152078,2.3815415,1.4220343,2.1545217,0.91919947,-0.37323865
666,2026-05-11 16:15:36.250706,2.5152078,2.3815415,1.4220343,2.1545217,0.91919947,-0.37323865
667,2026-05-11 16:15:36.253515,2.5152078,2.3815415,1.4220343,2.1545217,0.91919947,-0.37323865
668,2026-05-11 16:15:36.256173,2.5152078,2.3815415,1.4220343,2.1545217,0.91919947,-0.37323865
669,2026-05-11 16:15:36.259073,2.5339284,2.4493504,1.1155529,2.4463625,1.340391,-1.6936239
670,2026-05-11 16:15:36.261708,2.5339284,2.4493504,1.1155529,2.4463625,1.340391,-1.6936239
671,2026-05-11 16:15:36.264621,2.5339284,2.4493504,1.1155529,2.4463625,1.340391,-1.6936239
672,2026-05-11 16:15:36.267809,2.5763698,2.4364228,0.92633456,2.4813347,1.4656185,-2.443461
673,2026-05-11 16:15:36.270583,2.5763698,2.4364228,0.92633456,2.4813347,1.4656185,-2.443461
674,2026-05-11 16:15:36.273222,2.5763698,2.4364228,0.92633456,2.4813347,1.4656185,-2.443461
675,2026-05-11 16:15:36.275803,2.5763698,2.4364228,0.92633456,2.4813347,1.4656185,-2.443461
676,2026-05-11 16:15:36.278404,2.5763698,2.4364228,0.92633456,2.4813347,1.4656185,-2.443461
677,2026-05-11 16:15:36.280960,2.5763698,2.4364228,0.92633456,2.4813347,1.4656185,-2.443461
678,2026-05-11 16:15:36.284022,2.5763698,2.4364228,0.92633456,2.4813347,1.4656185,-2.443461
679,2026-05-11 16:15:36.286753,2.5763698,2.4364228,0.92633456,2.4813347,1.4656185,-2.443461
680,2026-05-11 16:15:36.289436,2.5763698,2.4364228,0.92633456,2.4813347,1.4656185,-2.443461
681,2026-05-11 16:15:36.292140,2.5763698,2.4364228,0.92633456,2.4813347,1.4656185,-2.443461
682,2026-05-11 16:15:36.294721,2.5763698,2.4364228,0.92633456,2.4813347,1.4656185,-2.443461
683,2026-05-11 16:15:36.297413,2.5763698,2.4364228,0.92633456,2.4813347,1.4656185,-2.443461
684,2026-05-11 16:15:36.300438,2.5763698,2.4364228,0.92633456,2.4813347,1.4656185,-2.443461
685,2026-05-11 16:15:36.303226,2.5763698,2.4364228,0.92633456,2.4813347,1.4656185,-2.443461
686,2026-05-11 16:15:36.306000,2.5763698,2.4364228,0.92633456,2.4813347,1.4656185,-2.443461
687,2026-05-11 16:15:36.308693,2.5763698,2.4364228,0.92633456,2.4813347,1.4656185,-2.443461
688,2026-05-11 16:15:36.311315,2.5763698,2.4364228,0.92633456,2.355649,1.6342173,-3.0619621
689,2026-05-11 16:15:36.314200,2.2345207,2.1863472,0.66723406,2.0457878,1.9834795,-3.6807685
690,2026-05-11 16:15:36.316989,2.2345207,2.1863472,0.66723406,2.0457878,1.9834795,-3.6807685
691,2026-05-11 16:15:36.320479,2.2345207,2.1863472,0.66723406,2.0457878,1.9834795,-3.6807685
692,2026-05-11 16:15:36.323268,2.2345207,2.1863472,0.66723406,2.0457878,1.9834795,-3.6807685
693,2026-05-11 16:15:36.326074,2.2345207,2.1863472,0.66723406,2.0457878,1.9834795,-3.6807685
694,2026-05-11 16:15:36.328659,2.2345207,2.1863472,0.66723406,2.0457878,1.9834795,-3.6807685
695,2026-05-11 16:15:36.331462,2.2345207,2.1863472,0.66723406,2.0457878,1.9834795,-3.6807685
696,2026-05-11 16:15:36.334842,2.2345207,2.1863472,0.66723406,2.0457878,1.9834795,-3.6807685
697,2026-05-11 16:15:36.337913,2.0320697,1.9793837,0.6751004,2.0457878,1.9834795,-3.6807685
698,2026-05-11 16:15:36.340652,2.0320697,1.9793837,0.6751004,1.8034269,2.492483,-4.416556
699,2026-05-11 16:15:36.343422,2.0320697,1.9793837,0.6751004,1.8034269,2.492483,-4.416556
700,2026-05-11 16:15:36.346089,2.0320697,1.9793837,0.6751004,1.8034269,2.492483,-4.416556
701,2026-05-11 16:15:36.348893,2.0320697,1.9793837,0.6751004,1.8034269,2.492483,-4.416556
702,2026-05-11 16:15:36.352196,2.0320697,1.9793837,0.6751004,1.8034269,2.492483,-4.416556
703,2026-05-11 16:15:36.354907,2.0320697,1.9793837,0.6751004,1.8034269,2.492483,-4.416556
704,2026-05-11 16:15:36.357591,2.0320697,1.9793837,0.6751004,1.8034269,2.492483,-4.416556
705,2026-05-11 16:15:36.360239,1.771079,1.6308879,0.72278607,1.8034269,2.492483,-4.416556
706,2026-05-11 16:15:36.362790,1.771079,1.6308879,0.72278607,1.8034269,2.492483,-4.416556
707,2026-05-11 16:15:36.365994,1.771079,1.6308879,0.72278607,1.8034269,2.492483,-4.416556
708,2026-05-11 16:15:36.369070,1.771079,1.6308879,0.72278607,1.8034269,2.492483,-4.416556
709,2026-05-11 16:15:36.371759,1.771079,1.6308879,0.72278607,1.8034269,2.492483,-4.416556
710,2026-05-11 16:15:36.374359,1.771079,1.6308879,0.72278607,1.8034269,2.492483,-4.416556
711,2026-05-11 16:15:36.377152,1.771079,1.6308879,0.72278607,1.8034269,2.492483,-4.416556
712,2026-05-11 16:15:36.379901,1.771079,1.6308879,0.72278607,1.8034269,2.492483,-4.416556
713,2026-05-11 16:15:36.382823,1.771079,1.6308879,0.72278607,1.8034269,2.492483,-4.416556
714,2026-05-11 16:15:36.385447,1.771079,1.6308879,0.72278607,1.8034269,2.492483,-4.416556
715,2026-05-11 16:15:36.388186,1.771079,1.6308879,0.72278607,1.8034269,2.492483,-4.416556
716,2026-05-11 16:15:36.390845,1.771079,1.6308879,0.72278607,1.8034269,2.492483,-4.416556
717,2026-05-11 16:15:36.393464,1.771079,1.6308879,0.72278607,1.8034269,2.492483,-4.416556
718,2026-05-11 16:15:36.396027,1.771079,1.6308879,0.72278607,1.8034269,2.492483,-4.416556
719,2026-05-11 16:15:36.398932,1.771079,1.6308879,0.72278607,1.8034269,2.492483,-4.416556
720,2026-05-11 16:15:36.401585,1.771079,1.6308879,0.72278607,1.8034269,2.492483,-4.416556
721,2026-05-11 16:15:36.404138,1.771079,1.6308879,0.72278607,1.8034269,2.492483,-4.416556
722,2026-05-11 16:15:36.406704,1.771079,1.6308879,0.72278607,1.8034269,2.492483,-4.416556
723,2026-05-11 16:15:36.409231,1.771079,1.6308879,0.72278607,1.8034269,2.492483,-4.416556
724,2026-05-11 16:15:36.411955,1.771079,1.6308879,0.72278607,2.025629,2.5450172,-4.653877
725,2026-05-11 16:15:36.414711,1.771079,1.6308879,0.72278607,2.025629,2.5450172,-4.653877
726,2026-05-11 16:15:36.417609,1.771079,1.6308879,0.72278607,2.025629,2.5450172,-4.653877
727,2026-05-11 16:15:36.420310,1.771079,1.6308879,0.72278607,2.025629,2.5450172,-4.653877
728,2026-05-11 16:15:36.422918,1.771079,1.6308879,0.72278607,2.025629,2.5450172,-4.653877
729,2026-05-11 16:15:36.425501,1.771079,1.6308879,0.72278607,2.025629,2.5450172,-4.653877
730,2026-05-11 16:15:36.428287,1.771079,1.6308879,0.72278607,2.025629,2.5450172,-4.653877
731,2026-05-11 16:15:36.431104,1.771079,1.6308879,0.72278607,2.025629,2.5450172,-4.653877
732,2026-05-11 16:15:36.434309,1.5574689,1.3813001,0.74656796,2.025629,2.5450172,-4.653877
733,2026-05-11 16:15:36.436979,1.5574689,1.3813001,0.74656796,2.025629,2.5450172,-4.653877
734,2026-05-11 16:15:36.439746,1.5574689,1.3813001,0.74656796,2.025629,2.5450172,-4.653877
735,2026-05-11 16:15:36.442451,1.5574689,1.3813001,0.74656796,2.025629,2.5450172,-4.653877
736,2026-05-11 16:15:36.445166,1.5574689,1.3813001,0.74656796,2.025629,2.5450172,-4.653877
737,2026-05-11 16:15:36.447869,1.5574689,1.3813001,0.74656796,2.025629,2.5450172,-4.653877
738,2026-05-11 16:15:36.451036,1.5574689,1.3813001,0.74656796,2.025629,2.5450172,-4.653877
739,2026-05-11 16:15:36.453907,1.4433769,1.135981,0.74205554,2.6702447,2.1612413,-4.7977357
740,2026-05-11 16:15:36.456566,1.4433769,1.135981,0.74205554,3.2743905,1.7185167,-5.012302
741,2026-05-11 16:15:36.459200,1.4433769,1.135981,0.74205554,3.2743905,1.7185167,-5.012302
742,2026-05-11 16:15:36.461998,1.4433769,1.135981,0.74205554,3.2743905,1.7185167,-5.012302
743,2026-05-11 16:15:36.464877,1.3492861,0.76364213,0.58003384,3.467424,1.5754215,-5.095838
744,2026-05-11 16:15:36.467989,1.3492861,0.76364213,0.58003384,3.467424,1.5754215,-5.095838
745,2026-05-11 16:15:36.470721,1.3492861,0.76364213,0.58003384,3.467424,1.5754215,-5.095838
746,2026-05-11 16:15:36.473309,1.3492861,0.76364213,0.58003384,3.467424,1.5754215,-5.095838
747,2026-05-11 16:15:36.476079,1.3492861,0.76364213,0.58003384,3.467424,1.5754215,-5.095838
748,2026-05-11 16:15:36.478768,1.3492861,0.76364213,0.58003384,3.467424,1.5754215,-5.095838
749,2026-05-11 16:15:36.481570,1.3492861,0.76364213,0.58003384,3.467424,1.5754215,-5.095838
750,2026-05-11 16:15:36.484544,1.3492861,0.76364213,0.58003384,3.467424,1.5754215,-5.095838
751,2026-05-11 16:15:36.487242,1.3492861,0.76364213,0.58003384,3.467424,1.5754215,-5.095838
752,2026-05-11 16:15:36.489838,1.3492861,0.76364213,0.58003384,3.467424,1.5754215,-5.095838
753,2026-05-11 16:15:36.492614,1.3492861,0.76364213,0.58003384,3.467424,1.5754215,-5.095838
754,2026-05-11 16:15:36.495259,1.3492861,0.76364213,0.58003384,3.467424,1.5754215,-5.095838
755,2026-05-11 16:15:36.497997,1.3492861,0.76364213,0.58003384,3.467424,1.5754215,-5.095838
756,2026-05-11 16:15:36.501159,1.3492861,0.76364213,0.58003384,3.467424,1.5754215,-5.095838
757,2026-05-11 16:15:36.504111,1.2317792,0.35319135,0.41288993,4.0898957,1.3738359,-5.4728947
758,2026-05-11 16:15:36.506804,1.2317792,0.35319135,0.41288993,4.0898957,1.3738359,-5.4728947
759,2026-05-11 16:15:36.509436,1.2317792,0.35319135,0.41288993,4.0898957,1.3738359,-5.4728947
760,2026-05-11 16:15:36.536069,1.2317792,0.35319135,0.41288993,4.2479568,1.3329079,-5.5944567
761,2026-05-11 16:15:36.539395,1.2317792,0.35319135,0.41288993,4.2479568,1.3329079,-5.5944567
762,2026-05-11 16:15:36.545907,1.1671413,0.26300314,0.33306822,4.2479568,1.3329079,-5.5944567
763,2026-05-11 16:15:36.550293,1.1671413,0.26300314,0.33306822,4.2479568,1.3329079,-5.5944567
764,2026-05-11 16:15:36.553239,1.1671413,0.26300314,0.33306822,4.2479568,1.3329079,-5.5944567
765,2026-05-11 16:15:36.555884,1.1671413,0.26300314,0.33306822,4.2479568,1.3329079,-5.5944567
766,2026-05-11 16:15:36.558731,1.1671413,0.26300314,0.33306822,4.2479568,1.3329079,-5.5944567
767,2026-05-11 16:15:36.561373,1.1671413,0.26300314,0.33306822,4.2479568,1.3329079,-5.5944567
768,2026-05-11 16:15:36.563933,1.1671413,0.26300314,0.33306822,4.2479568,1.3329079,-5.5944567
769,2026-05-11 16:15:36.567114,1.1671413,0.26300314,0.33306822,4.2479568,1.3329079,-5.5944567
770,2026-05-11 16:15:36.569923,0.92139524,0.0035977708,0.08646846,4.2479568,1.3329079,-5.5944567
771,2026-05-11 16:15:36.572564,0.92139524,0.0035977708,0.08646846,4.2479568,1.3329079,-5.5944567
772,2026-05-11 16:15:36.575147,0.92139524,0.0035977708,0.08646846,4.2479568,1.3329079,-5.5944567
773,2026-05-11 16:15:36.577747,0.92139524,0.0035977708,0.08646846,4.2479568,1.3329079,-5.5944567
774,2026-05-11 16:15:36.580318,0.92139524,0.0035977708,0.08646846,4.2479568,1.3329079,-5.5944567
775,2026-05-11 16:15:36.583213,0.92139524,0.0035977708,0.08646846,4.2479568,1.3329079,-5.5944567
776,2026-05-11 16:15:36.585977,0.92139524,0.0035977708,0.08646846,4.2479568,1.3329079,-5.5944567
777,2026-05-11 16:15:36.588615,0.92139524,0.0035977708,0.08646846,4.2479568,1.3329079,-5.5944567
778,2026-05-11 16:15:36.591355,0.92139524,0.0035977708,0.08646846,4.2479568,1.3329079,-5.5944567
779,2026-05-11 16:15:36.594135,0.92139524,0.0035977708,0.08646846,4.2479568,1.3329079,-5.5944567
780,2026-05-11 16:15:36.596728,0.92139524,0.0035977708,0.08646846,4.2479568,1.3329079,-5.5944567
781,2026-05-11 16:15:36.599707,0.92139524,0.0035977708,0.08646846,4.2479568,1.3329079,-5.5944567
782,2026-05-11 16:15:36.602564,0.92139524,0.0035977708,0.08646846,4.2479568,1.3329079,-5.5944567
783,2026-05-11 16:15:36.605282,0.92139524,0.0035977708,0.08646846,4.2479568,1.3329079,-5.5944567
784,2026-05-11 16:15:36.607991,0.92139524,0.0035977708,0.08646846,4.2479568,1.3329079,-5.5944567
785,2026-05-11 16:15:36.610756,0.92139524,0.0035977708,0.08646846,4.2479568,1.3329079,-5.5944567
786,2026-05-11 16:15:36.613443,0.92139524,0.0035977708,0.08646846,4.2479568,1.3329079,-5.5944567
787,2026-05-11 16:15:36.616440,0.92139524,0.0035977708,0.08646846,4.2479568,1.3329079,-5.5944567
788,2026-05-11 16:15:36.619233,0.92139524,0.0035977708,0.08646846,4.2479568,1.3329079,-5.5944567
789,2026-05-11 16:15:36.622025,0.92139524,0.0035977708,0.08646846,4.2479568,1.3329079,-5.5944567
790,2026-05-11 16:15:36.624618,0.92139524,0.0035977708,0.08646846,4.2479568,1.3329079,-5.5944567
791,2026-05-11 16:15:36.627224,0.92139524,0.0035977708,0.08646846,4.2479568,1.3329079,-5.5944567
792,2026-05-11 16:15:36.629778,0.92139524,0.0035977708,0.08646846,4.2479568,1.3329079,-5.5944567
793,2026-05-11 16:15:36.632926,0.92139524,0.0035977708,0.08646846,4.2479568,1.3329079,-5.5944567
794,2026-05-11 16:15:36.635649,0.92139524,0.0035977708,0.08646846,4.2479568,1.3329079,-5.5944567
795,2026-05-11 16:15:36.638387,0.92139524,0.0035977708,0.08646846,4.305531,1.1859949,-5.676618
796,2026-05-11 16:15:36.641040,0.92139524,0.0035977708,0.08646846,4.305531,1.1859949,-5.676618
797,2026-05-11 16:15:36.643673,0.92139524,0.0035977708,0.08646846,4.305531,1.1859949,-5.676618
798,2026-05-11 16:15:36.646307,0.92139524,0.0035977708,0.08646846,4.305531,1.1859949,-5.676618
799,2026-05-11 16:15:36.649502,0.92139524,0.0035977708,0.08646846,4.305531,1.1859949,-5.676618
800,2026-05-11 16:15:36.652325,0.92139524,0.0035977708,0.08646846,4.305531,1.1859949,-5.676618
801,2026-05-11 16:15:36.655006,0.92139524,0.0035977708,0.08646846,4.305531,1.1859949,-5.676618
802,2026-05-11 16:15:36.657615,0.92139524,0.0035977708,0.08646846,4.305531,1.1859949,-5.676618
803,2026-05-11 16:15:36.660196,0.92139524,0.0035977708,0.08646846,4.305531,1.1859949,-5.676618
804,2026-05-11 16:15:36.663038,0.72851807,-0.18025441,-0.025306353,4.305531,1.1859949,-5.676618
805,2026-05-11 16:15:36.666301,0.68424726,-0.2728208,-0.058357064,4.1551056,1.0206031,-5.517946
806,2026-05-11 16:15:36.669204,0.68424726,-0.2728208,-0.058357064,4.1551056,1.0206031,-5.517946
807,2026-05-11 16:15:36.671951,0.68424726,-0.2728208,-0.058357064,3.977649,0.9265299,-5.3426275
808,2026-05-11 16:15:36.674683,0.68424726,-0.2728208,-0.058357064,3.977649,0.9265299,-5.3426275
809,2026-05-11 16:15:36.677244,0.68424726,-0.2728208,-0.058357064,3.977649,0.9265299,-5.3426275
810,2026-05-11 16:15:36.680062,0.68424726,-0.2728208,-0.058357064,3.977649,0.9265299,-5.3426275
811,2026-05-11 16:15:36.683104,0.68424726,-0.2728208,-0.058357064,3.977649,0.9265299,-5.3426275
812,2026-05-11 16:15:36.685864,0.68424726,-0.2728208,-0.058357064,3.977649,0.9265299,-5.3426275
813,2026-05-11 16:15:36.688573,0.68424726,-0.2728208,-0.058357064,3.977649,0.9265299,-5.3426275
814,2026-05-11 16:15:36.691166,0.68424726,-0.2728208,-0.058357064,3.977649,0.9265299,-5.3426275
815,2026-05-11 16:15:36.693776,0.68424726,-0.2728208,-0.058357064,3.977649,0.9265299,-5.3426275
816,2026-05-11 16:15:36.696339,0.68424726,-0.2728208,-0.058357064,3.977649,0.9265299,-5.3426275
817,2026-05-11 16:15:36.699375,0.68424726,-0.2728208,-0.058357064,3.977649,0.9265299,-5.3426275
818,2026-05-11 16:15:36.702396,0.68424726,-0.2728208,-0.058357064,3.977649,0.9265299,-5.3426275
819,2026-05-11 16:15:36.705141,0.6535137,-0.35044727,-0.06305246,3.7719402,0.8368854,-5.177083
820,2026-05-11 16:15:36.707937,0.6535137,-0.35044727,-0.06305246,3.7719402,0.8368854,-5.177083
821,2026-05-11 16:15:36.710559,0.6535137,-0.35044727,-0.06305246,3.7719402,0.8368854,-5.177083
822,2026-05-11 16:15:36.713317,0.6535137,-0.35044727,-0.06305246,3.7719402,0.8368854,-5.177083
823,2026-05-11 16:15:36.716060,0.6535137,-0.35044727,-0.06305246,3.7719402,0.8368854,-5.177083
824,2026-05-11 16:15:36.719566,0.6535137,-0.35044727,-0.06305246,3.7719402,0.8368854,-5.177083
825,2026-05-11 16:15:36.722447,0.6535137,-0.35044727,-0.06305246,3.7719402,0.8368854,-5.177083
826,2026-05-11 16:15:36.725150,0.6535137,-0.35044727,-0.06305246,3.7719402,0.8368854,-5.177083
827,2026-05-11 16:15:36.727741,0.6535137,-0.35044727,-0.06305246,3.7719402,0.8368854,-5.177083
828,2026-05-11 16:15:36.730448,0.6535137,-0.35044727,-0.06305246,3.7719402,0.8368854,-5.177083
829,2026-05-11 16:15:36.733341,0.6535137,-0.35044727,-0.06305246,3.7719402,0.8368854,-5.177083
830,2026-05-11 16:15:36.736850,0.64912325,-0.36611894,-0.06067427,3.6679404,0.79381937,-5.097823
831,2026-05-11 16:15:36.739691,0.64912325,-0.36611894,-0.06067427,3.1580205,0.72036284,-4.799568
832,2026-05-11 16:15:36.742532,0.64912325,-0.36611894,-0.06067427,3.1580205,0.72036284,-4.799568
833,2026-05-11 16:15:36.745153,0.64912325,-0.36611894,-0.06067427,3.1580205,0.72036284,-4.799568
834,2026-05-11 16:15:36.747963,0.717237,-0.59107107,0.08213894,3.1580205,0.72036284,-4.799568
835,2026-05-11 16:15:36.751113,0.717237,-0.59107107,0.08213894,3.1580205,0.72036284,-4.799568
836,2026-05-11 16:15:36.753814,0.717237,-0.59107107,0.08213894,3.1580205,0.72036284,-4.799568
837,2026-05-11 16:15:36.756372,0.717237,-0.59107107,0.08213894,3.1580205,0.72036284,-4.799568
838,2026-05-11 16:15:36.759188,0.717237,-0.59107107,0.08213894,3.1580205,0.72036284,-4.799568
839,2026-05-11 16:15:36.761719,0.717237,-0.59107107,0.08213894,3.1580205,0.72036284,-4.799568
840,2026-05-11 16:15:36.764299,0.717237,-0.59107107,0.08213894,3.1580205,0.72036284,-4.799568
841,2026-05-11 16:15:36.767335,0.717237,-0.59107107,0.08213894,3.1580205,0.72036284,-4.799568
842,2026-05-11 16:15:36.770019,0.717237,-0.59107107,0.08213894,3.1580205,0.72036284,-4.799568
843,2026-05-11 16:15:36.772653,0.717237,-0.59107107,0.08213894,3.1580205,0.72036284,-4.799568
844,2026-05-11 16:15:36.775345,0.717237,-0.59107107,0.08213894,3.1210632,0.67073005,-4.784144
845,2026-05-11 16:15:36.778087,0.717237,-0.59107107,0.08213894,3.1210632,0.67073005,-4.784144
846,2026-05-11 16:15:36.780711,0.717237,-0.59107107,0.08213894,3.1210632,0.67073005,-4.784144
847,2026-05-11 16:15:36.783765,0.717237,-0.59107107,0.08213894,3.1210632,0.67073005,-4.784144
848,2026-05-11 16:15:36.786605,0.717237,-0.59107107,0.08213894,3.1210632,0.67073005,-4.784144
849,2026-05-11 16:15:36.789360,0.6600995,-0.6852839,0.1220803,3.1210632,0.67073005,-4.784144
850,2026-05-11 16:15:36.792265,0.6600995,-0.6852839,0.1220803,3.1354187,0.5664248,-4.7009134
851,2026-05-11 16:15:36.794958,0.6600995,-0.6852839,0.1220803,3.1354187,0.5664248,-4.7009134
852,2026-05-11 16:15:36.797540,0.6600995,-0.6852839,0.1220803,3.1354187,0.5664248,-4.7009134
853,2026-05-11 16:15:36.800777,0.6600995,-0.6852839,0.1220803,3.1354187,0.5664248,-4.7009134
854,2026-05-11 16:15:36.803717,0.52405494,-0.7688863,0.1144579,3.1155655,0.48151454,-4.5281916
855,2026-05-11 16:15:36.806476,0.52405494,-0.7688863,0.1144579,3.1155655,0.48151454,-4.5281916
856,2026-05-11 16:15:36.809065,0.52405494,-0.7688863,0.1144579,3.1155655,0.48151454,-4.5281916
857,2026-05-11 16:15:36.811783,0.42215878,-0.82730436,0.07982173,3.1155655,0.48151454,-4.5281916
858,2026-05-11 16:15:36.814372,0.42215878,-0.82730436,0.07982173,3.1155655,0.48151454,-4.5281916
859,2026-05-11 16:15:36.817386,0.42215878,-0.82730436,0.07982173,3.1155655,0.48151454,-4.5281916
860,2026-05-11 16:15:36.820278,0.42215878,-0.82730436,0.07982173,3.1155655,0.48151454,-4.5281916
861,2026-05-11 16:15:36.822897,0.42215878,-0.82730436,0.07982173,3.1155655,0.48151454,-4.5281916
862,2026-05-11 16:15:36.825622,0.42215878,-0.82730436,0.07982173,3.1155655,0.48151454,-4.5281916
863,2026-05-11 16:15:36.828252,0.42215878,-0.82730436,0.07982173,3.1155655,0.48151454,-4.5281916
864,2026-05-11 16:15:36.831444,0.42215878,-0.82730436,0.07982173,3.1155655,0.48151454,-4.5281916
865,2026-05-11 16:15:36.834386,0.42215878,-0.82730436,0.07982173,3.1155655,0.48151454,-4.5281916
866,2026-05-11 16:15:36.836992,0.42215878,-0.82730436,0.07982173,3.1155655,0.48151454,-4.5281916
867,2026-05-11 16:15:36.839547,0.42215878,-0.82730436,0.07982173,3.1155655,0.48151454,-4.5281916
868,2026-05-11 16:15:36.842127,0.42215878,-0.82730436,0.07982173,3.1155655,0.48151454,-4.5281916
869,2026-05-11 16:15:36.844885,0.42215878,-0.82730436,0.07982173,3.1155655,0.48151454,-4.5281916
870,2026-05-11 16:15:36.847487,0.42215878,-0.82730436,0.07982173,3.1155655,0.48151454,-4.5281916
871,2026-05-11 16:15:36.850395,0.42215878,-0.82730436,0.07982173,3.1155655,0.48151454,-4.5281916
872,2026-05-11 16:15:36.853092,0.42215878,-0.82730436,0.07982173,3.1155655,0.48151454,-4.5281916
873,2026-05-11 16:15:36.855637,0.42215878,-0.82730436,0.07982173,3.1155655,0.48151454,-4.5281916
874,2026-05-11 16:15:36.858188,0.42215878,-0.82730436,0.07982173,3.1155655,0.48151454,-4.5281916
875,2026-05-11 16:15:36.860887,0.42215878,-0.82730436,0.07982173,3.1155655,0.48151454,-4.5281916
876,2026-05-11 16:15:36.863468,0.42215878,-0.82730436,0.07982173,3.1155655,0.48151454,-4.5281916
877,2026-05-11 16:15:36.866332,0.42215878,-0.82730436,0.07982173,3.1155655,0.48151454,-4.5281916
878,2026-05-11 16:15:36.869187,0.42215878,-0.82730436,0.07982173,3.1155655,0.48151454,-4.5281916
879,2026-05-11 16:15:36.871851,0.42215878,-0.82730436,0.07982173,2.9959886,0.3819435,-4.196797
880,2026-05-11 16:15:36.874713,0.42215878,-0.82730436,0.07982173,2.9959886,0.3819435,-4.196797
881,2026-05-11 16:15:36.877337,0.42215878,-0.82730436,0.07982173,2.9959886,0.3819435,-4.196797
882,2026-05-11 16:15:36.879882,0.42215878,-0.82730436,0.07982173,2.9959886,0.3819435,-4.196797
883,2026-05-11 16:15:36.883054,0.42215878,-0.82730436,0.07982173,2.9959886,0.3819435,-4.196797
884,2026-05-11 16:15:36.885750,0.42215878,-0.82730436,0.07982173,2.9959886,0.3819435,-4.196797
885,2026-05-11 16:15:36.888377,0.33349505,-0.8798074,0.03597771,2.9959886,0.3819435,-4.196797
886,2026-05-11 16:15:36.891146,0.29837108,-0.9080408,0.021159772,2.8206704,0.38087448,-3.9277108
887,2026-05-11 16:15:36.893867,0.29837108,-0.9080408,0.021159772,2.8206704,0.38087448,-3.9277108
888,2026-05-11 16:15:36.896478,0.29837108,-0.9080408,0.021159772,2.8206704,0.38087448,-3.9277108
889,2026-05-11 16:15:36.899462,0.29837108,-0.9080408,0.021159772,2.8206704,0.38087448,-3.9277108
890,2026-05-11 16:15:36.902400,0.29837108,-0.9080408,0.021159772,2.8206704,0.38087448,-3.9277108
891,2026-05-11 16:15:36.904981,0.29837108,-0.9080408,0.021159772,2.8206704,0.38087448,-3.9277108
892,2026-05-11 16:15:36.907603,0.29837108,-0.9080408,0.021159772,2.8206704,0.38087448,-3.9277108
893,2026-05-11 16:15:36.910399,0.29837108,-0.9080408,0.021159772,2.8206704,0.38087448,-3.9277108
894,2026-05-11 16:15:36.913155,0.29837108,-0.9080408,0.021159772,2.641534,0.45204028,-3.7032177
895,2026-05-11 16:15:36.916266,0.29837108,-0.9080408,0.021159772,2.641534,0.45204028,-3.7032177
896,2026-05-11 16:15:36.919129,0.20769504,-0.9577998,0.00804925,2.641534,0.45204028,-3.7032177
897,2026-05-11 16:15:36.921732,0.20769504,-0.9577998,0.00804925,2.641534,0.45204028,-3.7032177
898,2026-05-11 16:15:36.924568,0.20769504,-0.9577998,0.00804925,2.641534,0.45204028,-3.7032177
899,2026-05-11 16:15:36.927199,0.20769504,-0.9577998,0.00804925,2.641534,0.45204028,-3.7032177
900,2026-05-11 16:15:36.929966,0.20769504,-0.9577998,0.00804925,2.641534,0.45204028,-3.7032177
901,2026-05-11 16:15:36.933233,0.20769504,-0.9577998,0.00804925,2.641534,0.45204028,-3.7032177
902,2026-05-11 16:15:36.936105,0.20769504,-0.9577998,0.00804925,2.641534,0.45204028,-3.7032177
903,2026-05-11 16:15:36.938879,0.20769504,-0.9577998,0.00804925,2.641534,0.45204028,-3.7032177
904,2026-05-11 16:15:36.941562,0.20769504,-0.9577998,0.00804925,2.641534,0.45204028,-3.7032177
905,2026-05-11 16:15:36.944373,0.20769504,-0.9577998,0.00804925,2.427273,0.51068336,-3.3883169
906,2026-05-11 16:15:36.947057,0.20769504,-0.9577998,0.00804925,2.427273,0.51068336,-3.3883169
907,2026-05-11 16:15:36.950158,0.20769504,-0.9577998,0.00804925,2.427273,0.51068336,-3.3883169
908,2026-05-11 16:15:36.953091,0.20769504,-0.9577998,0.00804925,2.427273,0.51068336,-3.3883169
909,2026-05-11 16:15:36.955738,0.20769504,-0.9577998,0.00804925,2.427273,0.51068336,-3.3883169
910,2026-05-11 16:15:36.958315,0.20769504,-0.9577998,0.00804925,2.427273,0.51068336,-3.3883169
911,2026-05-11 16:15:36.961012,0.20769504,-0.9577998,0.00804925,2.427273,0.51068336,-3.3883169
912,2026-05-11 16:15:36.963568,0.20769504,-0.9577998,0.00804925,2.427273,0.51068336,-3.3883169
913,2026-05-11 16:15:36.966432,0.20769504,-0.9577998,0.00804925,2.427273,0.51068336,-3.3883169
914,2026-05-11 16:15:36.969134,0.20769504,-0.9577998,0.00804925,2.427273,0.51068336,-3.3883169
915,2026-05-11 16:15:36.971677,0.20769504,-0.9577998,0.00804925,2.427273,0.51068336,-3.3883169
916,2026-05-11 16:15:36.974273,0.072016396,-0.98987484,0.025916148,2.427273,0.51068336,-3.3883169
917,2026-05-11 16:15:36.977084,0.072016396,-0.98987484,0.025916148,2.427273,0.51068336,-3.3883169
918,2026-05-11 16:15:36.979755,0.072016396,-0.98987484,0.025916148,2.427273,0.51068336,-3.3883169
919,2026-05-11 16:15:36.982876,0.072016396,-0.98987484,0.025916148,2.427273,0.51068336,-3.3883169
920,2026-05-11 16:15:36.985661,0.072016396,-0.98987484,0.025916148,2.427273,0.51068336,-3.3883169
921,2026-05-11 16:15:36.988622,0.072016396,-0.98987484,0.025916148,2.427273,0.51068336,-3.3883169
922,2026-05-11 16:15:36.991444,-0.018293751,-1.0026805,0.025977125,2.349235,0.46120325,-3.206737
923,2026-05-11 16:15:36.994187,-0.018293751,-1.0026805,0.025977125,2.349235,0.46120325,-3.206737
924,2026-05-11 16:15:36.996942,-0.018293751,-1.0026805,0.025977125,2.349235,0.46120325,-3.206737
925,2026-05-11 16:15:36.999978,-0.25050244,-1.0090833,-0.00073175,2.126422,0.28298333,-2.767067
926,2026-05-11 16:15:37.002818,-0.25050244,-1.0090833,-0.00073175,2.126422,0.28298333,-2.767067
927,2026-05-11 16:15:37.005519,-0.25050244,-1.0090833,-0.00073175,2.126422,0.28298333,-2.767067
928,2026-05-11 16:15:37.008106,-0.25050244,-1.0090833,-0.00073175,2.126422,0.28298333,-2.767067
929,2026-05-11 16:15:37.011002,-0.25050244,-1.0090833,-0.00073175,2.126422,0.28298333,-2.767067
930,2026-05-11 16:15:37.013732,-0.25050244,-1.0090833,-0.00073175,2.126422,0.28298333,-2.767067
931,2026-05-11 16:15:37.016891,-0.25050244,-1.0090833,-0.00073175,2.126422,0.28298333,-2.767067
932,2026-05-11 16:15:37.019639,-0.25050244,-1.0090833,-0.00073175,2.126422,0.28298333,-2.767067
933,2026-05-11 16:15:37.022261,-0.25050244,-1.0090833,-0.00073175,2.126422,0.28298333,-2.767067
934,2026-05-11 16:15:37.024998,-0.25050244,-1.0090833,-0.00073175,2.126422,0.28298333,-2.767067
935,2026-05-11 16:15:37.027574,-0.25050244,-1.0090833,-0.00073175,2.126422,0.28298333,-2.767067
936,2026-05-11 16:15:37.030383,-0.25050244,-1.0090833,-0.00073175,2.126422,0.28298333,-2.767067
937,2026-05-11 16:15:37.033478,-0.25050244,-1.0090833,-0.00073175,2.126422,0.28298333,-2.767067
938,2026-05-11 16:15:37.036181,-0.25050244,-1.0090833,-0.00073175,2.126422,0.28298333,-2.767067
939,2026-05-11 16:15:37.038887,-0.25050244,-1.0090833,-0.00073175,2.126422,0.28298333,-2.767067
940,2026-05-11 16:15:37.041507,-0.25050244,-1.0090833,-0.00073175,2.126422,0.28298333,-2.767067
941,2026-05-11 16:15:37.044074,-0.25050244,-1.0090833,-0.00073175,2.126422,0.28298333,-2.767067
942,2026-05-11 16:15:37.046822,-0.25050244,-1.0090833,-0.00073175,2.126422,0.28298333,-2.767067
943,2026-05-11 16:15:37.049835,-0.25050244,-1.0090833,-0.00073175,1.9089539,0.3220787,-2.4535403
944,2026-05-11 16:15:37.052739,-0.41636577,-0.9960337,-0.0009146876,1.9089539,0.3220787,-2.4535403
945,2026-05-11 16:15:37.055366,-0.41636577,-0.9960337,-0.0009146876,1.9089539,0.3220787,-2.4535403
946,2026-05-11 16:15:37.057928,-0.41636577,-0.9960337,-0.0009146876,1.9089539,0.3220787,-2.4535403
947,2026-05-11 16:15:37.060724,-0.41636577,-0.9960337,-0.0009146876,1.9089539,0.3220787,-2.4535403
948,2026-05-11 16:15:37.063340,-0.41636577,-0.9960337,-0.0009146876,1.9089539,0.3220787,-2.4535403
949,2026-05-11 16:15:37.066185,-0.41636577,-0.9960337,-0.0009146876,1.9089539,0.3220787,-2.4535403
950,2026-05-11 16:15:37.069003,-0.41636577,-0.9960337,-0.0009146876,1.9089539,0.3220787,-2.4535403
951,2026-05-11 16:15:37.071573,-0.41636577,-0.9960337,-0.0009146876,1.9089539,0.3220787,-2.4535403
952,2026-05-11 16:15:37.074127,-0.41636577,-0.9960337,-0.0009146876,1.9089539,0.3220787,-2.4535403
953,2026-05-11 16:15:37.076922,-0.5680819,-0.963227,-0.03305071,1.9089539,0.3220787,-2.4535403
954,2026-05-11 16:15:37.079523,-0.5680819,-0.963227,-0.03305071,1.9089539,0.3220787,-2.4535403
955,2026-05-11 16:15:37.082570,-0.5680819,-0.963227,-0.03305071,1.9089539,0.3220787,-2.4535403
956,2026-05-11 16:15:37.085353,-0.5680819,-0.963227,-0.03305071,1.9089539,0.3220787,-2.4535403
957,2026-05-11 16:15:37.087933,-0.5680819,-0.963227,-0.03305071,1.9089539,0.3220787,-2.4535403
958,2026-05-11 16:15:37.090484,-0.5680819,-0.963227,-0.03305071,1.9089539,0.3220787,-2.4535403
959,2026-05-11 16:15:37.093223,-0.5680819,-0.963227,-0.03305071,1.9089539,0.3220787,-2.4535403
960,2026-05-11 16:15:37.095795,-0.5680819,-0.963227,-0.03305071,1.9089539,0.3220787,-2.4535403
961,2026-05-11 16:15:37.098495,-0.5680819,-0.963227,-0.03305071,1.9089539,0.3220787,-2.4535403
962,2026-05-11 16:15:37.101625,-0.5680819,-0.963227,-0.03305071,1.9089539,0.3220787,-2.4535403
963,2026-05-11 16:15:37.104364,-0.5680819,-0.963227,-0.03305071,1.9089539,0.3220787,-2.4535403
964,2026-05-11 16:15:37.107013,-0.5680819,-0.963227,-0.03305071,1.9089539,0.3220787,-2.4535403
965,2026-05-11 16:15:37.109617,-0.5680819,-0.963227,-0.03305071,1.9089539,0.3220787,-2.4535403
966,2026-05-11 16:15:37.112354,-0.5680819,-0.963227,-0.03305071,1.9089539,0.3220787,-2.4535403
967,2026-05-11 16:15:37.114967,-0.5680819,-0.963227,-0.03305071,1.9089539,0.3220787,-2.4535403
968,2026-05-11 16:15:37.118160,-0.5680819,-0.963227,-0.03305071,1.9089539,0.3220787,-2.4535403
969,2026-05-11 16:15:37.120903,-0.5680819,-0.963227,-0.03305071,1.9089539,0.3220787,-2.4535403
970,2026-05-11 16:15:37.123507,-0.5680819,-0.963227,-0.03305071,1.9089539,0.3220787,-2.4535403
971,2026-05-11 16:15:37.126344,-0.5680819,-0.963227,-0.03305071,1.6696475,0.4728097,-2.2305744
972,2026-05-11 16:15:37.129063,-0.5680819,-0.963227,-0.03305071,1.2275337,0.75670934,-1.9373591
973,2026-05-11 16:15:37.131804,-0.79827833,-0.94139636,-0.09817646,1.2275337,0.75670934,-1.9373591
974,2026-05-11 16:15:37.134831,-0.79827833,-0.94139636,-0.09817646,1.2275337,0.75670934,-1.9373591
975,2026-05-11 16:15:37.137568,-0.9362742,-0.9450551,-0.13915445,1.2275337,0.75670934,-1.9373591
976,2026-05-11 16:15:37.140131,-0.9362742,-0.9450551,-0.13915445,1.2275337,0.75670934,-1.9373591
977,2026-05-11 16:15:37.142852,-0.9362742,-0.9450551,-0.13915445,1.2275337,0.75670934,-1.9373591
978,2026-05-11 16:15:37.145427,-0.9362742,-0.9450551,-0.13915445,1.2275337,0.75670934,-1.9373591
979,2026-05-11 16:15:37.148105,-0.9362742,-0.9450551,-0.13915445,1.2275337,0.75670934,-1.9373591
980,2026-05-11 16:15:37.151138,-0.9362742,-0.9450551,-0.13915445,1.2275337,0.75670934,-1.9373591
981,2026-05-11 16:15:37.153823,-0.9362742,-0.9450551,-0.13915445,1.2275337,0.75670934,-1.9373591
982,2026-05-11 16:15:37.156601,-0.9362742,-0.9450551,-0.13915445,1.2275337,0.75670934,-1.9373591
983,2026-05-11 16:15:37.159192,-0.9362742,-0.9450551,-0.13915445,1.2275337,0.75670934,-1.9373591
984,2026-05-11 16:15:37.161849,-0.9362742,-0.9450551,-0.13915445,1.2275337,0.75670934,-1.9373591
985,2026-05-11 16:15:37.164408,-0.9362742,-0.9450551,-0.13915445,1.2275337,0.75670934,-1.9373591
986,2026-05-11 16:15:37.167487,-0.9362742,-0.9450551,-0.13915445,1.2275337,0.75670934,-1.9373591
987,2026-05-11 16:15:37.170340,-0.9362742,-0.9450551,-0.13915445,1.2275337,0.75670934,-1.9373591
988,2026-05-11 16:15:37.172918,-0.9362742,-0.9450551,-0.13915445,1.2275337,0.75670934,-1.9373591
989,2026-05-11 16:15:37.175532,-0.9362742,-0.9450551,-0.13915445,1.2275337,0.75670934,-1.9373591
990,2026-05-11 16:15:37.178233,-0.9362742,-0.9450551,-0.13915445,0.8923214,0.93233305,-1.7176003
991,2026-05-11 16:15:37.180798,-0.9362742,-0.9450551,-0.13915445,0.8923214,0.93233305,-1.7176003
992,2026-05-11 16:15:37.184139,-0.9362742,-0.9450551,-0.13915445,0.8923214,0.93233305,-1.7176003
993,2026-05-11 16:15:37.187003,-0.9362742,-0.9450551,-0.13915445,0.8923214,0.93233305,-1.7176003
994,2026-05-11 16:15:37.189758,-0.9362742,-0.9450551,-0.13915445,0.8923214,0.93233305,-1.7176003
995,2026-05-11 16:15:37.192346,-0.9362742,-0.9450551,-0.13915445,0.8923214,0.93233305,-1.7176003
996,2026-05-11 16:15:37.195196,-0.9362742,-0.9450551,-0.13915445,-0.062155537,1.3089315,-0.9266826
997,2026-05-11 16:15:37.197904,-1.2635493,-1.0172545,-0.19226731,-0.062155537,1.3089315,-0.9266826
998,2026-05-11 16:15:37.201143,-1.3719094,-1.0650622,-0.15531394,-0.062155537,1.3089315,-0.9266826
999,2026-05-11 16:15:37.203809,-1.3719094,-1.0650622,-0.15531394,-0.062155537,1.3089315,-0.9266826
1000,2026-05-11 16:15:37.206491,-1.3719094,-1.0650622,-0.15531394,-0.062155537,1.3089315,-0.9266826
1001,2026-05-11 16:15:37.209098,-1.3719094,-1.0650622,-0.15531394,-0.062155537,1.3089315,-0.9266826
1002,2026-05-11 16:15:37.211770,-1.3719094,-1.0650622,-0.15531394,-0.062155537,1.3089315,-0.9266826
1003,2026-05-11 16:15:37.214313,-1.3719094,-1.0650622,-0.15531394,-0.062155537,1.3089315,-0.9266826
1004,2026-05-11 16:15:37.217402,-1.3719094,-1.0650622,-0.15531394,-0.062155537,1.3089315,-0.9266826
1005,2026-05-11 16:15:37.220146,-1.3719094,-1.0650622,-0.15531394,-0.062155537,1.3089315,-0.9266826
1006,2026-05-11 16:15:37.222730,-1.3719094,-1.0650622,-0.15531394,-0.062155537,1.3089315,-0.9266826
1007,2026-05-11 16:15:37.225316,-1.3719094,-1.0650622,-0.15531394,-0.062155537,1.3089315,-0.9266826
1008,2026-05-11 16:15:37.228072,-1.3719094,-1.0650622,-0.15531394,-0.062155537,1.3089315,-0.9266826
1009,2026-05-11 16:15:37.230752,-1.3719094,-1.0650622,-0.15531394,-0.062155537,1.3089315,-0.9266826
1010,2026-05-11 16:15:37.233786,-1.3719094,-1.0650622,-0.15531394,-0.062155537,1.3089315,-0.9266826
1011,2026-05-11 16:15:37.236579,-1.3985572,-1.062745,-0.037624147,-0.66889745,1.5012014,-0.20051652
1012,2026-05-11 16:15:37.239391,-1.3985572,-1.062745,-0.037624147,-0.66889745,1.5012014,-0.20051652
1013,2026-05-11 16:15:37.242155,-1.3985572,-1.062745,-0.037624147,-0.66889745,1.5012014,-0.20051652
1014,2026-05-11 16:15:37.244868,-1.2548903,-1.0231694,0.08433419,-1.7895297,1.9885191,2.0050125
1015,2026-05-11 16:15:37.247661,-0.8085838,-1.0718918,0.18330337,-2.2574525,2.291661,3.8628063
1016,2026-05-11 16:15:37.250956,-0.8085838,-1.0718918,0.18330337,-2.2574525,2.291661,3.8628063
1017,2026-05-11 16:15:37.253926,-0.8085838,-1.0718918,0.18330337,-2.2574525,2.291661,3.8628063
1018,2026-05-11 16:15:37.256555,-0.8085838,-1.0718918,0.18330337,-2.2574525,2.291661,3.8628063
1019,2026-05-11 16:15:37.259254,-0.8085838,-1.0718918,0.18330337,-2.2574525,2.291661,3.8628063
1020,2026-05-11 16:15:37.261851,-0.8085838,-1.0718918,0.18330337,-2.2574525,2.291661,3.8628063
1021,2026-05-11 16:15:37.264409,-0.8085838,-1.0718918,0.18330337,-2.2574525,2.291661,3.8628063
1022,2026-05-11 16:15:37.267584,-0.8085838,-1.0718918,0.18330337,-2.347097,2.352442,4.6842675
1023,2026-05-11 16:15:37.270374,-0.8085838,-1.0718918,0.18330337,-2.347097,2.352442,4.6842675
1024,2026-05-11 16:15:37.272968,-0.8085838,-1.0718918,0.18330337,-2.347097,2.352442,4.6842675
1025,2026-05-11 16:15:37.275774,-0.8085838,-1.0718918,0.18330337,-2.347097,2.352442,4.6842675
1026,2026-05-11 16:15:37.278438,-0.8085838,-1.0718918,0.18330337,-2.347097,2.352442,4.6842675
1027,2026-05-11 16:15:37.281740,-0.058722936,-1.1502501,0.24403864,-2.3591616,2.2947154,5.789017
1028,2026-05-11 16:15:37.284744,-0.058722936,-1.1502501,0.24403864,-2.3591616,2.2947154,5.789017
1029,2026-05-11 16:15:37.287345,-0.058722936,-1.1502501,0.24403864,-2.3591616,2.2947154,5.789017
1030,2026-05-11 16:15:37.289946,-0.058722936,-1.1502501,0.24403864,-2.3591616,2.2947154,5.789017
1031,2026-05-11 16:15:37.292751,-0.058722936,-1.1502501,0.24403864,-2.3591616,2.2947154,5.789017
1032,2026-05-11 16:15:37.295386,-0.058722936,-1.1502501,0.24403864,-2.3591616,2.2947154,5.789017
1033,2026-05-11 16:15:37.298341,-0.058722936,-1.1502501,0.24403864,-2.3591616,2.2947154,5.789017
1034,2026-05-11 16:15:37.301386,-0.058722936,-1.1502501,0.24403864,-2.3591616,2.2947154,5.789017
1035,2026-05-11 16:15:37.304072,-0.058722936,-1.1502501,0.24403864,-2.3591616,2.2947154,5.789017
1036,2026-05-11 16:15:37.306784,-0.058722936,-1.1502501,0.24403864,-2.3591616,2.2947154,5.789017
1037,2026-05-11 16:15:37.309379,-0.058722936,-1.1502501,0.24403864,-2.3591616,2.2947154,5.789017
1038,2026-05-11 16:15:37.311983,-0.058722936,-1.1502501,0.24403864,-2.3591616,2.2947154,5.789017
1039,2026-05-11 16:15:37.314546,-0.058722936,-1.1502501,0.24403864,-2.3591616,2.2947154,5.789017
1040,2026-05-11 16:15:37.318061,-0.058722936,-1.1502501,0.24403864,-2.3591616,2.2947154,5.789017
1041,2026-05-11 16:15:37.320983,-0.058722936,-1.1502501,0.24403864,-2.3591616,2.2947154,5.789017
1042,2026-05-11 16:15:37.323614,-0.058722936,-1.1502501,0.24403864,-2.3591616,2.2947154,5.789017
1043,2026-05-11 16:15:37.326271,-0.058722936,-1.1502501,0.24403864,-2.3591616,2.2947154,5.789017
1044,2026-05-11 16:15:37.328993,-0.058722936,-1.1502501,0.24403864,-2.3591616,2.2947154,5.789017
1045,2026-05-11 16:15:37.331618,-0.058722936,-1.1502501,0.24403864,-2.3591616,2.2947154,5.789017
1046,2026-05-11 16:15:37.335024,-0.058722936,-1.1502501,0.24403864,-2.3591616,2.2947154,5.789017
1047,2026-05-11 16:15:37.337725,-0.058722936,-1.1502501,0.24403864,-2.3591616,2.2947154,5.789017
1048,2026-05-11 16:15:37.340421,-0.058722936,-1.1502501,0.24403864,-2.3591616,2.2947154,5.789017
1049,2026-05-11 16:15:37.343008,-0.058722936,-1.1502501,0.24403864,-2.3591616,2.2947154,5.789017
1050,2026-05-11 16:15:37.345744,-0.058722936,-1.1502501,0.24403864,-2.3591616,2.2947154,5.789017
1051,2026-05-11 16:15:37.348454,-0.058722936,-1.1502501,0.24403864,-2.3591616,2.2947154,5.789017
1052,2026-05-11 16:15:37.351635,-0.058722936,-1.1502501,0.24403864,-2.384207,2.175902,6.6427016
1053,2026-05-11 16:15:37.354470,0.20775603,-1.1870205,0.23476979,-2.384207,2.175902,6.6427016
1054,2026-05-11 16:15:37.357056,0.20775603,-1.1870205,0.23476979,-2.384207,2.175902,6.6427016
1055,2026-05-11 16:15:37.359756,0.20775603,-1.1870205,0.23476979,-2.384207,2.175902,6.6427016
1056,2026-05-11 16:15:37.362435,1.1379322,-1.1783004,0.19275515,-2.4594963,1.29198,8.047234
1057,2026-05-11 16:15:37.365372,1.4028867,-1.1359199,0.18513274,-2.5114198,0.52412236,8.384126
1058,2026-05-11 16:15:37.368336,1.4028867,-1.1359199,0.18513274,-2.5114198,0.52412236,8.384126
1059,2026-05-11 16:15:37.371076,1.4028867,-1.1359199,0.18513274,-2.5114198,0.52412236,8.384126
1060,2026-05-11 16:15:37.373718,1.4028867,-1.1359199,0.18513274,-2.5114198,0.52412236,8.384126
1061,2026-05-11 16:15:37.376346,1.4028867,-1.1359199,0.18513274,-2.5114198,0.52412236,8.384126
1062,2026-05-11 16:15:37.378913,1.4028867,-1.1359199,0.18513274,-2.5114198,0.52412236,8.384126
1063,2026-05-11 16:15:37.381666,1.4028867,-1.1359199,0.18513274,-2.5114198,0.52412236,8.384126
1064,2026-05-11 16:15:37.384700,1.7732131,-1.0230476,0.17427845,-2.5114198,0.52412236,8.384126
1065,2026-05-11 16:15:37.387389,1.7732131,-1.0230476,0.17427845,-2.5114198,0.52412236,8.384126
1066,2026-05-11 16:15:37.390112,1.7732131,-1.0230476,0.17427845,-2.5114198,0.52412236,8.384126
1067,2026-05-11 16:15:37.392894,1.7732131,-1.0230476,0.17427845,-2.6583328,0.15851954,8.463843
1068,2026-05-11 16:15:37.395653,1.7732131,-1.0230476,0.17427845,-2.6583328,0.15851954,8.463843
1069,2026-05-11 16:15:37.398368,2.0814629,-0.90383315,0.20647547,-2.6583328,0.15851954,8.463843
1070,2026-05-11 16:15:37.401565,2.3193426,-0.7710206,0.29495624,-2.8017335,0.049938235,8.437424
1071,2026-05-11 16:15:37.404202,2.3193426,-0.7710206,0.29495624,-2.8017335,0.049938235,8.437424
1072,2026-05-11 16:15:37.406853,2.3193426,-0.7710206,0.29495624,-2.8017335,0.049938235,8.437424
1073,2026-05-11 16:15:37.409416,2.3193426,-0.7710206,0.29495624,-2.8017335,0.049938235,8.437424
1074,2026-05-11 16:15:37.412077,2.3193426,-0.7710206,0.29495624,-2.9092457,0.20433442,8.161923
1075,2026-05-11 16:15:37.414607,2.3193426,-0.7710206,0.29495624,-2.9092457,0.20433442,8.161923
1076,2026-05-11 16:15:37.417905,2.596737,-0.57039917,0.56826484,-2.9092457,0.20433442,8.161923
1077,2026-05-11 16:15:37.420784,2.6695461,-0.45051408,0.71248055,-2.8418977,0.24923302,8.063421
1078,2026-05-11 16:15:37.423457,2.6695461,-0.45051408,0.71248055,-2.8418977,0.24923302,8.063421
1079,2026-05-11 16:15:37.426018,2.6695461,-0.45051408,0.71248055,-2.8418977,0.24923302,8.063421
1080,2026-05-11 16:15:37.428803,2.6695461,-0.45051408,0.71248055,-2.8418977,0.24923302,8.063421
1081,2026-05-11 16:15:37.431465,2.6695461,-0.45051408,0.71248055,-2.8418977,0.24923302,8.063421
1082,2026-05-11 16:15:37.434614,2.6695461,-0.45051408,0.71248055,-2.8418977,0.24923302,8.063421
1083,2026-05-11 16:15:37.437338,2.6695461,-0.45051408,0.71248055,-2.8418977,0.24923302,8.063421
1084,2026-05-11 16:15:37.439915,2.6695461,-0.45051408,0.71248055,-2.8418977,0.24923302,8.063421
1085,2026-05-11 16:15:37.442582,2.6695461,-0.45051408,0.71248055,-2.8418977,0.24923302,8.063421
1086,2026-05-11 16:15:37.445241,2.6695461,-0.45051408,0.71248055,-2.8418977,0.24923302,8.063421
1087,2026-05-11 16:15:37.448324,2.6695461,-0.45051408,0.71248055,-2.8418977,0.24923302,8.063421
1088,2026-05-11 16:15:37.451290,2.6695461,-0.45051408,0.71248055,-2.8418977,0.24923302,8.063421
1089,2026-05-11 16:15:37.453911,2.6695461,-0.45051408,0.71248055,-2.8418977,0.24923302,8.063421
1090,2026-05-11 16:15:37.456662,2.6695461,-0.45051408,0.71248055,-2.8418977,0.24923302,8.063421
1091,2026-05-11 16:15:37.459228,2.6695461,-0.45051408,0.71248055,-2.8418977,0.24923302,8.063421
1092,2026-05-11 16:15:37.462069,2.6695461,-0.45051408,0.71248055,-2.8418977,0.24923302,8.063421
1093,2026-05-11 16:15:37.464651,2.6695461,-0.45051408,0.71248055,-2.8418977,0.24923302,8.063421
1094,2026-05-11 16:15:37.467794,2.6695461,-0.45051408,0.71248055,-2.8418977,0.24923302,8.063421
1095,2026-05-11 16:15:37.470511,2.6695461,-0.45051408,0.71248055,-2.8418977,0.24923302,8.063421
1096,2026-05-11 16:15:37.473084,2.6695461,-0.45051408,0.71248055,-2.8418977,0.24923302,8.063421
1097,2026-05-11 16:15:37.475826,2.6695461,-0.45051408,0.71248055,-2.8418977,0.24923302,8.063421
1098,2026-05-11 16:15:37.478440,2.6695461,-0.45051408,0.71248055,-2.8418977,0.24923302,8.063421
1099,2026-05-11 16:15:37.481043,2.6695461,-0.45051408,0.71248055,-2.8418977,0.24923302,8.063421
1100,2026-05-11 16:15:37.484121,2.6695461,-0.45051408,0.71248055,-2.8418977,0.24923302,8.063421
1101,2026-05-11 16:15:37.486834,2.6695461,-0.45051408,0.71248055,-2.8418977,0.24923302,8.063421
1102,2026-05-11 16:15:37.489435,2.6695461,-0.45051408,0.71248055,-2.8418977,0.24923302,8.063421
1103,2026-05-11 16:15:37.492073,2.6695461,-0.45051408,0.71248055,-2.8418977,0.24923302,8.063421
1104,2026-05-11 16:15:37.494642,2.6695461,-0.45051408,0.71248055,-2.8418977,0.24923302,8.063421
1105,2026-05-11 16:15:37.497478,3.061398,0.10994543,1.2287303,-2.8418977,0.24923302,8.063421
1106,2026-05-11 16:15:37.500438,3.061398,0.10994543,1.2287303,-2.8418977,0.24923302,8.063421
1107,2026-05-11 16:15:37.503427,3.061398,0.10994543,1.2287303,-2.8418977,0.24923302,8.063421
1108,2026-05-11 16:15:37.506083,3.061398,0.10994543,1.2287303,-2.8418977,0.24923302,8.063421
1109,2026-05-11 16:15:37.508749,3.061398,0.10994543,1.2287303,-2.8418977,0.24923302,8.063421
1110,2026-05-11 16:15:37.511457,3.061398,0.10994543,1.2287303,-2.8418977,0.24923302,8.063421
1111,2026-05-11 16:15:37.514020,3.061398,0.10994543,1.2287303,-1.7345519,0.043218717,7.570453
1112,2026-05-11 16:15:37.517049,3.061398,0.10994543,1.2287303,-1.7345519,0.043218717,7.570453
1113,2026-05-11 16:15:37.519722,3.061398,0.10994543,1.2287303,-1.7345519,0.043218717,7.570453
1114,2026-05-11 16:15:37.522311,3.061398,0.10994543,1.2287303,-1.7345519,0.043218717,7.570453
1115,2026-05-11 16:15:37.525007,3.3579397,0.48313794,1.4309982,-1.7345519,0.043218717,7.570453
1116,2026-05-11 16:15:37.527627,3.3579397,0.48313794,1.4309982,-1.0170907,-0.13515393,7.2363095
1117,2026-05-11 16:15:37.530206,3.3579397,0.48313794,1.4309982,-1.0170907,-0.13515393,7.2363095
1118,2026-05-11 16:15:37.532978,3.3579397,0.48313794,1.4309982,-1.0170907,-0.13515393,7.2363095
1119,2026-05-11 16:15:37.536546,3.3579397,0.48313794,1.4309982,-1.0170907,-0.13515393,7.2363095
1120,2026-05-11 16:15:37.539436,3.3579397,0.48313794,1.4309982,-1.0170907,-0.13515393,7.2363095
1121,2026-05-11 16:15:37.542213,3.3579397,0.48313794,1.4309982,-1.0170907,-0.13515393,7.2363095
1122,2026-05-11 16:15:37.544836,3.3579397,0.48313794,1.4309982,-1.0170907,-0.13515393,7.2363095
1123,2026-05-11 16:15:37.547883,3.615089,0.9543849,1.5369799,0.35170567,-0.38438696,6.4420323
1124,2026-05-11 16:15:37.551238,3.615089,0.9543849,1.5369799,0.35170567,-0.38438696,6.4420323
1125,2026-05-11 16:15:37.554123,3.615089,0.9543849,1.5369799,0.35170567,-0.38438696,6.4420323
1126,2026-05-11 16:15:37.556828,3.3603182,1.4203267,1.1478108,0.35170567,-0.38438696,6.4420323
1127,2026-05-11 16:15:37.559571,3.3603182,1.4203267,1.1478108,0.35170567,-0.38438696,6.4420323
1128,2026-05-11 16:15:37.562163,3.3603182,1.4203267,1.1478108,0.35170567,-0.38438696,6.4420323
1129,2026-05-11 16:15:37.564978,3.3603182,1.4203267,1.1478108,0.35170567,-0.38438696,6.4420323
1130,2026-05-11 16:15:37.568106,3.3603182,1.4203267,1.1478108,0.35170567,-0.38438696,6.4420323
1131,2026-05-11 16:15:37.570757,3.3603182,1.4203267,1.1478108,0.35170567,-0.38438696,6.4420323
1132,2026-05-11 16:15:37.573347,3.3603182,1.4203267,1.1478108,0.35170567,-0.38438696,6.4420323
1133,2026-05-11 16:15:37.575909,3.3603182,1.4203267,1.1478108,0.35170567,-0.38438696,6.4420323
1134,2026-05-11 16:15:37.578670,3.3603182,1.4203267,1.1478108,0.35170567,-0.38438696,6.4420323
1135,2026-05-11 16:15:37.581264,3.3603182,1.4203267,1.1478108,0.35170567,-0.38438696,6.4420323
1136,2026-05-11 16:15:37.584226,3.3603182,1.4203267,1.1478108,0.35170567,-0.38438696,6.4420323
1137,2026-05-11 16:15:37.586981,3.3603182,1.4203267,1.1478108,0.35170567,-0.38438696,6.4420323
1138,2026-05-11 16:15:37.589541,3.3603182,1.4203267,1.1478108,0.35170567,-0.38438696,6.4420323
1139,2026-05-11 16:15:37.592115,3.3603182,1.4203267,1.1478108,0.35170567,-0.38438696,6.4420323
1140,2026-05-11 16:15:37.594951,3.3603182,1.4203267,1.1478108,0.35170567,-0.38438696,6.4420323
1141,2026-05-11 16:15:37.597555,3.3603182,1.4203267,1.1478108,0.35170567,-0.38438696,6.4420323
1142,2026-05-11 16:15:37.600571,3.3603182,1.4203267,1.1478108,2.43048,-0.41538838,4.767956
1143,2026-05-11 16:15:37.603358,3.3603182,1.4203267,1.1478108,2.43048,-0.41538838,4.767956
1144,2026-05-11 16:15:37.605963,3.3603182,1.4203267,1.1478108,2.43048,-0.41538838,4.767956
1145,2026-05-11 16:15:37.608606,3.3603182,1.4203267,1.1478108,2.43048,-0.41538838,4.767956
1146,2026-05-11 16:15:37.611274,3.3603182,1.4203267,1.1478108,2.43048,-0.41538838,4.767956
1147,2026-05-11 16:15:37.613889,3.3322067,1.4817327,1.1478108,2.5928175,-0.36545014,4.589736
1148,2026-05-11 16:15:37.617124,3.3322067,1.4817327,1.1478108,2.5928175,-0.36545014,4.589736
1149,2026-05-11 16:15:37.619963,3.3322067,1.4817327,1.1478108,2.5928175,-0.36545014,4.589736
1150,2026-05-11 16:15:37.622580,3.3322067,1.4817327,1.1478108,2.5928175,-0.36545014,4.589736
1151,2026-05-11 16:15:37.625297,3.3322067,1.4817327,1.1478108,2.5928175,-0.36545014,4.589736
1152,2026-05-11 16:15:37.627908,3.3322067,1.4817327,1.1478108,2.5928175,-0.36545014,4.589736
1153,2026-05-11 16:15:37.630662,3.3322067,1.4817327,1.1478108,2.5928175,-0.36545014,4.589736
1154,2026-05-11 16:15:37.633690,3.3322067,1.4817327,1.1478108,2.5928175,-0.36545014,4.589736
1155,2026-05-11 16:15:37.636483,3.3322067,1.4817327,1.1478108,2.5928175,-0.36545014,4.589736
1156,2026-05-11 16:15:37.639242,3.3322067,1.4817327,1.1478108,2.5928175,-0.36545014,4.589736
1157,2026-05-11 16:15:37.641886,3.3322067,1.4817327,1.1478108,2.5928175,-0.36545014,4.589736
1158,2026-05-11 16:15:37.644626,3.3322067,1.4817327,1.1478108,2.5928175,-0.36545014,4.589736
1159,2026-05-11 16:15:37.647319,3.0332258,1.8329118,0.36172843,2.8637362,0.30451632,3.6004398
1160,2026-05-11 16:15:37.650286,3.0332258,1.8329118,0.36172843,2.8637362,0.30451632,3.6004398
1161,2026-05-11 16:15:37.653136,3.0332258,1.8329118,0.36172843,2.8637362,0.30451632,3.6004398
1162,2026-05-11 16:15:37.655784,3.0332258,1.8329118,0.36172843,2.8637362,0.30451632,3.6004398
1163,2026-05-11 16:15:37.658358,3.0332258,1.8329118,0.36172843,2.8637362,0.30451632,3.6004398
1164,2026-05-11 16:15:37.661132,3.0332258,1.8329118,0.36172843,2.8637362,0.30451632,3.6004398
1165,2026-05-11 16:15:37.663831,3.0332258,1.8329118,0.36172843,2.8637362,0.30451632,3.6004398
1166,2026-05-11 16:15:37.672581,3.0332258,1.8329118,0.36172843,2.8637362,0.30451632,3.6004398
1167,2026-05-11 16:15:37.692496,3.0332258,1.8329118,0.36172843,2.8637362,0.30451632,3.6004398
1168,2026-05-11 16:15:37.697021,3.0332258,1.8329118,0.36172843,2.8637362,0.30451632,3.6004398
1169,2026-05-11 16:15:37.703402,3.0332258,1.8329118,0.36172843,2.8637362,0.30451632,3.6004398
1170,2026-05-11 16:15:37.706273,3.0332258,1.8329118,0.36172843,2.8637362,0.30451632,3.6004398
1171,2026-05-11 16:15:37.708966,3.0332258,1.8329118,0.36172843,2.8637362,0.30451632,3.6004398
1172,2026-05-11 16:15:37.711792,3.0332258,1.8329118,0.36172843,2.8637362,0.30451632,3.6004398
1173,2026-05-11 16:15:37.714568,3.0332258,1.8329118,0.36172843,2.8637362,0.30451632,3.6004398
1174,2026-05-11 16:15:37.717881,3.0332258,1.8329118,0.36172843,2.8637362,0.30451632,3.6004398
1175,2026-05-11 16:15:37.720613,3.0332258,1.8329118,0.36172843,2.8637362,0.30451632,3.6004398
1176,2026-05-11 16:15:37.723396,2.6806443,2.0094466,-0.19275515,2.8637362,0.30451632,3.6004398
1177,2026-05-11 16:15:37.726007,2.6806443,2.0094466,-0.19275515,2.8637362,0.30451632,3.6004398
1178,2026-05-11 16:15:37.728626,2.6806443,2.0094466,-0.19275515,2.8637362,0.30451632,3.6004398
1179,2026-05-11 16:15:37.731316,2.6806443,2.0094466,-0.19275515,2.8637362,0.30451632,3.6004398
1180,2026-05-11 16:15:37.734532,2.6806443,2.0094466,-0.19275515,2.1571178,1.196685,2.8217392
1181,2026-05-11 16:15:37.737214,2.6806443,2.0094466,-0.19275515,2.1571178,1.196685,2.8217392
1182,2026-05-11 16:15:37.740021,2.6806443,2.0094466,-0.19275515,2.1571178,1.196685,2.8217392
1183,2026-05-11 16:15:37.742762,2.6806443,2.0094466,-0.19275515,1.2055426,1.8186985,2.271808
1184,2026-05-11 16:15:37.745353,2.6806443,2.0094466,-0.19275515,1.2055426,1.8186985,2.271808
1185,2026-05-11 16:15:37.747894,2.6806443,2.0094466,-0.19275515,1.2055426,1.8186985,2.271808
1186,2026-05-11 16:15:37.751068,2.6806443,2.0094466,-0.19275515,1.2055426,1.8186985,2.271808
1187,2026-05-11 16:15:37.753794,2.6806443,2.0094466,-0.19275515,1.2055426,1.8186985,2.271808
1188,2026-05-11 16:15:37.756558,2.6806443,2.0094466,-0.19275515,1.2055426,1.8186985,2.271808
1189,2026-05-11 16:15:37.759225,2.6806443,2.0094466,-0.19275515,1.2055426,1.8186985,2.271808
1190,2026-05-11 16:15:37.761843,2.3664796,2.0643888,-0.4733203,1.2055426,1.8186985,2.271808
1191,2026-05-11 16:15:37.764653,2.3664796,2.0643888,-0.4733203,1.2055426,1.8186985,2.271808
1192,2026-05-11 16:15:37.767666,2.3664796,2.0643888,-0.4733203,1.2055426,1.8186985,2.271808
1193,2026-05-11 16:15:37.771269,2.3664796,2.0643888,-0.4733203,1.2055426,1.8186985,2.271808
1194,2026-05-11 16:15:37.774055,2.3664796,2.0643888,-0.4733203,1.2055426,1.8186985,2.271808
1195,2026-05-11 16:15:37.776791,2.3664796,2.0643888,-0.4733203,1.2055426,1.8186985,2.271808
1196,2026-05-11 16:15:37.779429,2.0591445,2.0438998,-0.5091151,1.2055426,1.8186985,2.271808
1197,2026-05-11 16:15:37.782214,2.0591445,2.0438998,-0.5091151,1.2055426,1.8186985,2.271808
1198,2026-05-11 16:15:37.785778,2.0591445,2.0438998,-0.5091151,0.04046982,1.9720258,1.7200438
1199,2026-05-11 16:15:37.788534,2.0591445,2.0438998,-0.5091151,0.04046982,1.9720258,1.7200438
1200,2026-05-11 16:15:37.791214,2.0591445,2.0438998,-0.5091151,0.04046982,1.9720258,1.7200438
1201,2026-05-11 16:15:37.794207,1.9271855,1.9596875,-0.3945352,-0.5448918,1.6653714,1.2980887
1202,2026-05-11 16:15:37.796832,1.9271855,1.9596875,-0.3945352,-0.5448918,1.6653714,1.2980887
1203,2026-05-11 16:15:37.799688,1.9271855,1.9596875,-0.3945352,-0.5448918,1.6653714,1.2980887
1204,2026-05-11 16:15:37.803118,1.9271855,1.9596875,-0.3945352,-0.5448918,1.6653714,1.2980887
1205,2026-05-11 16:15:37.806124,1.9271855,1.9596875,-0.3945352,-0.5448918,1.6653714,1.2980887
1206,2026-05-11 16:15:37.808797,1.9271855,1.9596875,-0.3945352,-0.5448918,1.6653714,1.2980887
1207,2026-05-11 16:15:37.811413,1.9271855,1.9596875,-0.3945352,-0.5448918,1.6653714,1.2980887
1208,2026-05-11 16:15:37.814362,1.6855861,1.6802199,-0.097749606,-0.5448918,1.6653714,1.2980887
1209,2026-05-11 16:15:37.817483,1.6855861,1.6802199,-0.097749606,-0.63117653,0.9088148,0.204029
1210,2026-05-11 16:15:37.820212,1.6855861,1.6802199,-0.097749606,-0.63117653,0.9088148,0.204029
1211,2026-05-11 16:15:37.822934,1.6855861,1.6802199,-0.097749606,-0.63117653,0.9088148,0.204029
1212,2026-05-11 16:15:37.825689,1.4921603,1.5647255,0.009695687,-0.63117653,0.9088148,0.204029
1213,2026-05-11 16:15:37.828297,1.4921603,1.5647255,0.009695687,-0.63117653,0.9088148,0.204029
1214,2026-05-11 16:15:37.831157,1.4921603,1.5647255,0.009695687,-0.63117653,0.9088148,0.204029
1215,2026-05-11 16:15:37.834382,1.4921603,1.5647255,0.009695687,-0.45463645,0.9109528,-0.030848695
1216,2026-05-11 16:15:37.837076,1.4921603,1.5647255,0.009695687,-0.45463645,0.9109528,-0.030848695
1217,2026-05-11 16:15:37.839835,1.4921603,1.5647255,0.009695687,-0.45463645,0.9109528,-0.030848695
1218,2026-05-11 16:15:37.842554,1.4921603,1.5647255,0.009695687,-0.45463645,0.9109528,-0.030848695
1219,2026-05-11 16:15:37.845164,1.4921603,1.5647255,0.009695687,-0.45463645,0.9109528,-0.030848695
1220,2026-05-11 16:15:37.847909,1.4921603,1.5647255,0.009695687,-0.45463645,0.9109528,-0.030848695
1221,2026-05-11 16:15:37.851033,1.4921603,1.5647255,0.009695687,-0.45463645,0.9109528,-0.030848695
1222,2026-05-11 16:15:37.853795,1.4921603,1.5647255,0.009695687,-0.45463645,0.9109528,-0.030848695
1223,2026-05-11 16:15:37.856389,1.4921603,1.5647255,0.009695687,-0.45463645,0.9109528,-0.030848695
1224,2026-05-11 16:15:37.859090,1.4921603,1.5647255,0.009695687,-0.45463645,0.9109528,-0.030848695
1225,2026-05-11 16:15:37.861712,1.4921603,1.5647255,0.009695687,-0.45463645,0.9109528,-0.030848695
1226,2026-05-11 16:15:37.864529,1.2237909,1.5907636,0.014574022,-0.2941316,0.9392053,-0.18127427
1227,2026-05-11 16:15:37.867442,1.2237909,1.5907636,0.014574022,-0.2941316,0.9392053,-0.18127427
1228,2026-05-11 16:15:37.870176,1.2237909,1.5907636,0.014574022,-0.2941316,0.9392053,-0.18127427
1229,2026-05-11 16:15:37.872763,1.2237909,1.5907636,0.014574022,-0.2941316,0.9392053,-0.18127427
1230,2026-05-11 16:15:37.875589,1.2237909,1.5907636,0.014574022,-0.2941316,0.9392053,-0.18127427
1231,2026-05-11 16:15:37.878204,1.2237909,1.5907636,0.014574022,-0.2941316,0.9392053,-0.18127427
1232,2026-05-11 16:15:37.881021,1.2237909,1.5907636,0.014574022,-0.2941316,0.9392053,-0.18127427
1233,2026-05-11 16:15:37.884056,1.2237909,1.5907636,0.014574022,-0.2941316,0.9392053,-0.18127427
1234,2026-05-11 16:15:37.886962,1.2237909,1.5907636,0.014574022,-0.2941316,0.9392053,-0.18127427
1235,2026-05-11 16:15:37.889668,1.2237909,1.5907636,0.014574022,-0.2941316,0.9392053,-0.18127427
1236,2026-05-11 16:15:37.892260,1.2237909,1.5907636,0.014574022,-0.2941316,0.9392053,-0.18127427
1237,2026-05-11 16:15:37.895028,1.2237909,1.5907636,0.014574022,-0.2941316,0.9392053,-0.18127427
1238,2026-05-11 16:15:37.897622,1.2237909,1.5907636,0.014574022,-0.2941316,0.9392053,-0.18127427
1239,2026-05-11 16:15:37.900820,1.205741,1.6749148,-0.004268542,-0.2941316,0.9392053,-0.18127427
1240,2026-05-11 16:15:37.903441,1.205741,1.6749148,-0.004268542,-0.2941316,0.9392053,-0.18127427
1241,2026-05-11 16:15:37.906026,1.205741,1.6749148,-0.004268542,-0.16249016,0.8874345,-0.18555032
1242,2026-05-11 16:15:37.908739,1.205741,1.6749148,-0.004268542,-0.16249016,0.8874345,-0.18555032
1243,2026-05-11 16:15:37.911356,1.205741,1.6749148,-0.004268542,-0.16249016,0.8874345,-0.18555032
1244,2026-05-11 16:15:37.913953,1.205741,1.6749148,-0.004268542,-0.16249016,0.8874345,-0.18555032
1245,2026-05-11 16:15:37.917008,1.205741,1.6749148,-0.004268542,-0.16249016,0.8874345,-0.18555032
1246,2026-05-11 16:15:37.919812,1.205741,1.6749148,-0.004268542,-0.16249016,0.8874345,-0.18555032
1247,2026-05-11 16:15:37.922567,1.205741,1.6749148,-0.004268542,-0.16249016,0.8874345,-0.18555032
1248,2026-05-11 16:15:37.925350,1.205741,1.6749148,-0.004268542,-0.16249016,0.8874345,-0.18555032
1249,2026-05-11 16:15:37.927985,1.205741,1.6749148,-0.004268542,-0.16249016,0.8874345,-0.18555032
1250,2026-05-11 16:15:37.930569,1.205741,1.6749148,-0.004268542,-0.16249016,0.8874345,-0.18555032
1251,2026-05-11 16:15:37.933763,1.4201438,1.8371803,0.070065066,-0.16249016,0.8874345,-0.18555032
1252,2026-05-11 16:15:37.936547,1.4201438,1.8371803,0.070065066,-0.16249016,0.8874345,-0.18555032
1253,2026-05-11 16:15:37.939163,1.4201438,1.8371803,0.070065066,-0.16249016,0.8874345,-0.18555032
1254,2026-05-11 16:15:37.941769,1.4201438,1.8371803,0.070065066,-0.16249016,0.8874345,-0.18555032
1255,2026-05-11 16:15:37.944406,1.4201438,1.8371803,0.070065066,-0.16249016,0.8874345,-0.18555032
1256,2026-05-11 16:15:37.946966,1.4201438,1.8371803,0.070065066,-0.16249016,0.8874345,-0.18555032
1257,2026-05-11 16:15:37.950061,1.4201438,1.8371803,0.070065066,-0.16249016,0.8874345,-0.18555032
1258,2026-05-11 16:15:37.952791,1.4201438,1.8371803,0.070065066,-0.16249016,0.8874345,-0.18555032
1259,2026-05-11 16:15:37.955508,1.4201438,1.8371803,0.070065066,0.16768251,0.61315596,-0.19257528
1260,2026-05-11 16:15:37.958242,1.7079045,2.0129223,0.115006715,0.16768251,0.61315596,-0.19257528
1261,2026-05-11 16:15:37.960827,1.7079045,2.0129223,0.115006715,0.16768251,0.61315596,-0.19257528
1262,2026-05-11 16:15:37.963441,1.7079045,2.0129223,0.115006715,0.16768251,0.61315596,-0.19257528
1263,2026-05-11 16:15:37.966309,1.7079045,2.0129223,0.115006715,0.16768251,0.61315596,-0.19257528
1264,2026-05-11 16:15:37.969171,1.7079045,2.0129223,0.115006715,0.16768251,0.61315596,-0.19257528
1265,2026-05-11 16:15:37.971893,2.1390274,2.1985428,0.16976601,0.8219192,0.14889841,-0.5844453
1266,2026-05-11 16:15:37.974581,2.1390274,2.1985428,0.16976601,0.8219192,0.14889841,-0.5844453
1267,2026-05-11 16:15:37.977228,2.5038047,2.3605645,0.23202574,1.4859297,-0.33490688,-1.5700763
1268,2026-05-11 16:15:37.979861,2.5038047,2.3605645,0.23202574,1.4859297,-0.33490688,-1.5700763
1269,2026-05-11 16:15:37.982663,2.5038047,2.3605645,0.23202574,1.4859297,-0.33490688,-1.5700763
1270,2026-05-11 16:15:37.985481,2.5038047,2.3605645,0.23202574,1.4859297,-0.33490688,-1.5700763
1271,2026-05-11 16:15:37.988138,2.5038047,2.3605645,0.23202574,1.4859297,-0.33490688,-1.5700763
1272,2026-05-11 16:15:37.990940,2.5038047,2.3605645,0.23202574,1.4859297,-0.33490688,-1.5700763
1273,2026-05-11 16:15:37.993680,2.5038047,2.3605645,0.23202574,1.4859297,-0.33490688,-1.5700763
1274,2026-05-11 16:15:37.996243,2.5038047,2.3605645,0.23202574,1.4859297,-0.33490688,-1.5700763
1275,2026-05-11 16:15:37.999264,2.7732105,2.4668512,0.18080322,1.4859297,-0.33490688,-1.5700763
1276,2026-05-11 16:15:38.002282,2.7732105,2.4668512,0.18080322,1.4859297,-0.33490688,-1.5700763
1277,2026-05-11 16:15:38.005076,2.9655998,2.4298368,0.13573962,1.4576772,-0.35201108,-3.306919
1278,2026-05-11 16:15:38.007778,2.9655998,2.4298368,0.13573962,1.4576772,-0.35201108,-3.306919
1279,2026-05-11 16:15:38.010488,2.9655998,2.4298368,0.13573962,1.4576772,-0.35201108,-3.306919
1280,2026-05-11 16:15:38.013079,2.9655998,2.4298368,0.13573962,1.4576772,-0.35201108,-3.306919
1281,2026-05-11 16:15:38.016088,2.9655998,2.4298368,0.13573962,1.4576772,-0.35201108,-3.306919
