id,timestamp,acc_x,acc_y,acc_z,gyro_x,gyro_y,gyro_z
1,2026-05-11 16:10:08.113022,0.44447714,-0.22440335,2.763149,1.7232509,3.5271358,-0.26725355
2,2026-05-11 16:10:08.123105,0.44447714,-0.22440335,2.763149,1.7232509,3.5271358,-0.26725355
3,2026-05-11 16:10:08.126151,0.44447714,-0.22440335,2.763149,1.7232509,3.5271358,-0.26725355
4,2026-05-11 16:10:08.129142,0.44447714,-0.22440335,2.763149,1.7232509,3.5271358,-0.26725355
5,2026-05-11 16:10:08.131815,0.44447714,-0.22440335,2.763149,1.7232509,3.5271358,-0.26725355
6,2026-05-11 16:10:08.135052,0.44447714,-0.22440335,2.763149,1.7232509,3.5271358,-0.26725355
7,2026-05-11 16:10:08.137812,0.44447714,-0.22440335,2.763149,1.7232509,3.5271358,-0.26725355
8,2026-05-11 16:10:08.140520,0.44447714,-0.22440335,2.763149,1.7232509,3.5271358,-0.26725355
9,2026-05-11 16:10:08.143156,0.44447714,-0.22440335,2.763149,1.7232509,3.5271358,-0.26725355
10,2026-05-11 16:10:08.145777,0.44447714,-0.22440335,2.763149,1.7232509,3.5271358,-0.26725355
11,2026-05-11 16:10:08.148535,0.44447714,-0.22440335,2.763149,1.7232509,3.5271358,-0.26725355
12,2026-05-11 16:10:08.151674,0.44447714,-0.22440335,2.763149,1.7232509,3.5271358,-0.26725355
13,2026-05-11 16:10:08.154373,0.44447714,-0.22440335,2.763149,1.7232509,3.5271358,-0.26725355
14,2026-05-11 16:10:08.156951,0.44447714,-0.22440335,2.763149,1.7232509,3.5271358,-0.26725355
15,2026-05-11 16:10:08.159578,0.44447714,-0.22440335,2.763149,1.7232509,3.5271358,-0.26725355
16,2026-05-11 16:10:08.162098,0.44447714,-0.22440335,2.763149,1.7232509,3.5271358,-0.26725355
17,2026-05-11 16:10:08.164673,0.44447714,-0.22440335,2.763149,1.7232509,3.5271358,-0.26725355
18,2026-05-11 16:10:08.167807,0.44447714,-0.22440335,2.763149,1.7232509,3.5271358,-0.26725355
19,2026-05-11 16:10:08.170479,0.44447714,-0.22440335,2.763149,1.7232509,3.5271358,-0.26725355
20,2026-05-11 16:10:08.173044,0.44447714,-0.22440335,2.763149,1.7232509,3.5271358,-0.26725355
21,2026-05-11 16:10:08.175804,0.4443552,-0.21476863,2.6156404,1.7232509,3.5271358,-0.26725355
22,2026-05-11 16:10:08.178413,0.4443552,-0.21476863,2.6156404,1.7232509,3.5271358,-0.26725355
23,2026-05-11 16:10:08.180940,0.4443552,-0.21476863,2.6156404,1.7232509,3.5271358,-0.26725355
24,2026-05-11 16:10:08.183993,0.4443552,-0.21476863,2.6156404,1.7232509,3.5271358,-0.26725355
25,2026-05-11 16:10:08.186767,0.4443552,-0.21476863,2.6156404,1.7232509,3.5271358,-0.26725355
26,2026-05-11 16:10:08.189389,0.4443552,-0.21476863,2.6156404,1.7232509,3.5271358,-0.26725355
27,2026-05-11 16:10:08.192024,0.4443552,-0.21476863,2.6156404,1.7232509,3.5271358,-0.26725355
28,2026-05-11 16:10:08.194729,0.4443552,-0.21476863,2.6156404,1.7232509,3.5271358,-0.26725355
29,2026-05-11 16:10:08.197620,0.4443552,-0.21476863,2.6156404,1.7232509,3.5271358,-0.26725355
30,2026-05-11 16:10:08.200885,0.4443552,-0.21476863,2.6156404,1.7232509,3.5271358,-0.26725355
31,2026-05-11 16:10:08.203698,0.4443552,-0.21476863,2.6156404,1.7232509,3.5271358,-0.26725355
32,2026-05-11 16:10:08.206312,0.4443552,-0.21476863,2.6156404,1.7232509,3.5271358,-0.26725355
33,2026-05-11 16:10:08.209100,0.4443552,-0.21476863,2.6156404,1.7232509,3.5271358,-0.26725355
34,2026-05-11 16:10:08.211694,0.4443552,-0.21476863,2.6156404,1.7232509,3.5271358,-0.26725355
35,2026-05-11 16:10:08.214373,0.4443552,-0.21476863,2.6156404,1.7232509,3.5271358,-0.26725355
36,2026-05-11 16:10:08.217338,0.4443552,-0.21476863,2.6156404,1.7232509,3.5271358,-0.26725355
37,2026-05-11 16:10:08.220309,0.4443552,-0.21476863,2.6156404,1.7232509,3.5271358,-0.26725355
38,2026-05-11 16:10:08.222951,0.4443552,-0.21476863,2.6156404,1.7232509,3.5271358,-0.26725355
39,2026-05-11 16:10:08.225554,0.4443552,-0.21476863,2.6156404,1.7232509,3.5271358,-0.26725355
40,2026-05-11 16:10:08.228330,0.4443552,-0.21476863,2.6156404,1.7232509,3.5271358,-0.26725355
41,2026-05-11 16:10:08.230948,0.4443552,-0.21476863,2.6156404,1.7232509,3.5271358,-0.26725355
42,2026-05-11 16:10:08.234230,0.4443552,-0.21476863,2.6156404,1.7232509,3.5271358,-0.26725355
43,2026-05-11 16:10:08.236959,0.4443552,-0.21476863,2.6156404,1.7232509,3.5271358,-0.26725355
44,2026-05-11 16:10:08.239572,0.4443552,-0.21476863,2.6156404,1.7232509,3.5271358,-0.26725355
45,2026-05-11 16:10:08.242191,0.4443552,-0.21476863,2.6156404,1.7232509,3.5271358,-0.26725355
46,2026-05-11 16:10:08.244758,0.4443552,-0.21476863,2.6156404,1.7232509,3.5271358,-0.26725355
47,2026-05-11 16:10:08.247436,0.4443552,-0.21476863,2.6156404,1.7232509,3.5271358,-0.26725355
48,2026-05-11 16:10:08.250304,0.4443552,-0.21476863,2.6156404,1.7232509,3.5271358,-0.26725355
49,2026-05-11 16:10:08.253272,0.4443552,-0.21476863,2.6156404,1.7232509,3.5271358,-0.26725355
50,2026-05-11 16:10:08.255887,0.4443552,-0.21476863,2.6156404,1.7232509,3.5271358,-0.26725355
51,2026-05-11 16:10:08.258469,0.4443552,-0.21476863,2.6156404,1.7232509,3.5271358,-0.26725355
52,2026-05-11 16:10:08.261248,0.4443552,-0.21476863,2.6156404,1.7232509,3.5271358,-0.26725355
53,2026-05-11 16:10:08.263832,0.4443552,-0.21476863,2.6156404,1.7232509,3.5271358,-0.26725355
54,2026-05-11 16:10:08.266769,0.4443552,-0.21476863,2.6156404,1.7232509,3.5271358,-0.26725355
55,2026-05-11 16:10:08.269431,0.4443552,-0.21476863,2.6156404,1.7232509,3.5271358,-0.26725355
56,2026-05-11 16:10:08.272020,0.4443552,-0.21476863,2.6156404,1.7232509,3.5271358,-0.26725355
57,2026-05-11 16:10:08.274779,0.4443552,-0.21476863,2.6156404,1.7232509,3.5271358,-0.26725355
58,2026-05-11 16:10:08.277388,0.4443552,-0.21476863,2.6156404,1.7232509,3.5271358,-0.26725355
59,2026-05-11 16:10:08.279948,0.4443552,-0.21476863,2.6156404,1.7232509,3.5271358,-0.26725355
60,2026-05-11 16:10:08.282791,0.4443552,-0.21476863,2.6156404,1.7232509,3.5271358,-0.26725355
61,2026-05-11 16:10:08.285793,0.4443552,-0.21476863,2.6156404,1.7232509,3.5271358,-0.26725355
62,2026-05-11 16:10:08.288406,0.4443552,-0.21476863,2.6156404,1.7232509,3.5271358,-0.26725355
63,2026-05-11 16:10:08.291096,0.4443552,-0.21476863,2.6156404,1.7232509,3.5271358,-0.26725355
64,2026-05-11 16:10:08.293665,0.4443552,-0.21476863,2.6156404,1.7232509,3.5271358,-0.26725355
65,2026-05-11 16:10:08.296459,0.4443552,-0.21476863,2.6156404,1.7232509,3.5271358,-0.26725355
66,2026-05-11 16:10:08.299046,0.4443552,-0.21476863,2.6156404,1.7232509,3.5271358,-0.26725355
67,2026-05-11 16:10:08.302260,0.4443552,-0.21476863,2.6156404,1.7232509,3.5271358,-0.26725355
68,2026-05-11 16:10:08.304999,0.4443552,-0.21476863,2.6156404,1.7232509,3.5271358,-0.26725355
69,2026-05-11 16:10:08.307640,0.4443552,-0.21476863,2.6156404,1.7232509,3.5271358,-0.26725355
70,2026-05-11 16:10:08.310310,0.4443552,-0.21476863,2.6156404,1.7232509,3.5271358,-0.26725355
71,2026-05-11 16:10:08.312993,0.4443552,-0.21476863,2.6156404,1.7232509,3.5271358,-0.26725355
72,2026-05-11 16:10:08.315749,0.4443552,-0.21476863,2.6156404,1.7232509,3.5271358,-0.26725355
73,2026-05-11 16:10:08.318727,0.4443552,-0.21476863,2.6156404,1.7232509,3.5271358,-0.26725355
74,2026-05-11 16:10:08.321338,0.4443552,-0.21476863,2.6156404,1.7232509,3.5271358,-0.26725355
75,2026-05-11 16:10:08.324181,0.4443552,-0.21476863,2.6156404,1.7232509,3.5271358,-0.26725355
76,2026-05-11 16:10:08.326768,0.4443552,-0.21476863,2.6156404,1.7232509,3.5271358,-0.26725355
77,2026-05-11 16:10:08.329452,0.4443552,-0.21476863,2.6156404,1.7232509,3.5271358,-0.26725355
78,2026-05-11 16:10:08.331979,0.4443552,-0.21476863,2.6156404,1.7232509,3.5271358,-0.26725355
79,2026-05-11 16:10:08.335102,0.4443552,-0.21476863,2.6156404,1.7232509,3.5271358,-0.26725355
80,2026-05-11 16:10:08.337788,0.4443552,-0.21476863,2.6156404,1.7232509,3.5271358,-0.26725355
81,2026-05-11 16:10:08.340347,0.4443552,-0.21476863,2.6156404,1.7232509,3.5271358,-0.26725355
82,2026-05-11 16:10:08.343063,0.4443552,-0.21476863,2.6156404,1.7232509,3.5271358,-0.26725355
83,2026-05-11 16:10:08.345649,0.4443552,-0.21476863,2.6156404,1.7232509,3.5271358,-0.26725355
84,2026-05-11 16:10:08.348267,0.4443552,-0.21476863,2.6156404,1.7232509,3.5271358,-0.26725355
85,2026-05-11 16:10:08.351471,0.4443552,-0.21476863,2.6156404,1.7232509,3.5271358,-0.26725355
86,2026-05-11 16:10:08.354275,0.4443552,-0.21476863,2.6156404,2.0037906,3.626707,-0.18387043
87,2026-05-11 16:10:08.356982,0.4443552,-0.21476863,2.6156404,2.0037906,3.626707,-0.18387043
88,2026-05-11 16:10:08.359542,0.4443552,-0.21476863,2.6156404,2.0037906,3.626707,-0.18387043
89,2026-05-11 16:10:08.362344,0.4443552,-0.21476863,2.6156404,2.0037906,3.626707,-0.18387043
90,2026-05-11 16:10:08.364986,0.4443552,-0.21476863,2.6156404,2.0037906,3.626707,-0.18387043
91,2026-05-11 16:10:08.368086,0.4443552,-0.21476863,2.6156404,2.0037906,3.626707,-0.18387043
92,2026-05-11 16:10:08.370757,0.4443552,-0.21476863,2.6156404,2.0037906,3.626707,-0.18387043
93,2026-05-11 16:10:08.373390,0.4443552,-0.21476863,2.6156404,2.58396,3.2704198,-0.060322944
94,2026-05-11 16:10:08.376126,0.4443552,-0.21476863,2.6156404,2.58396,3.2704198,-0.060322944
95,2026-05-11 16:10:08.378739,0.4443552,-0.21476863,2.6156404,2.58396,3.2704198,-0.060322944
96,2026-05-11 16:10:08.381385,0.4443552,-0.21476863,2.6156404,2.58396,3.2704198,-0.060322944
97,2026-05-11 16:10:08.384177,0.4443552,-0.21476863,2.6156404,2.58396,3.2704198,-0.060322944
98,2026-05-11 16:10:08.387084,0.4443552,-0.21476863,2.6156404,2.58396,3.2704198,-0.060322944
99,2026-05-11 16:10:08.389728,0.4443552,-0.21476863,2.6156404,2.58396,3.2704198,-0.060322944
100,2026-05-11 16:10:08.392323,0.4443552,-0.21476863,2.6156404,2.58396,3.2704198,-0.060322944
101,2026-05-11 16:10:08.394975,0.4443552,-0.21476863,2.6156404,2.58396,3.2704198,-0.060322944
102,2026-05-11 16:10:08.397580,0.4443552,-0.21476863,2.6156404,2.58396,3.2704198,-0.060322944
103,2026-05-11 16:10:08.400525,0.4443552,-0.21476863,2.6156404,2.58396,3.2704198,-0.060322944
104,2026-05-11 16:10:08.403868,0.4443552,-0.21476863,2.6156404,2.58396,3.2704198,-0.060322944
105,2026-05-11 16:10:08.406601,0.4443552,-0.21476863,2.6156404,2.58396,3.2704198,-0.060322944
106,2026-05-11 16:10:08.409368,0.4443552,-0.21476863,2.6156404,2.58396,3.2704198,-0.060322944
107,2026-05-11 16:10:08.412069,0.4443552,-0.21476863,2.6156404,2.58396,3.2704198,-0.060322944
108,2026-05-11 16:10:08.414658,0.4443552,-0.21476863,2.6156404,2.58396,3.2704198,-0.060322944
109,2026-05-11 16:10:08.417690,0.54308045,-0.12256813,1.8845003,2.58396,3.2704198,-0.060322944
110,2026-05-11 16:10:08.421052,0.54308045,-0.12256813,1.8845003,2.58396,3.2704198,-0.060322944
111,2026-05-11 16:10:08.423740,0.54308045,-0.12256813,1.8845003,2.58396,3.2704198,-0.060322944
112,2026-05-11 16:10:08.426435,0.54308045,-0.12256813,1.8845003,2.58396,3.2704198,-0.060322944
113,2026-05-11 16:10:08.429222,0.54308045,-0.12256813,1.8845003,2.58396,3.2704198,-0.060322944
114,2026-05-11 16:10:08.431871,0.54308045,-0.12256813,1.8845003,2.58396,3.2704198,-0.060322944
115,2026-05-11 16:10:08.435038,0.54308045,-0.12256813,1.8845003,2.58396,3.2704198,-0.060322944
116,2026-05-11 16:10:08.437716,0.54308045,-0.12256813,1.8845003,2.58396,3.2704198,-0.060322944
117,2026-05-11 16:10:08.440456,0.54308045,-0.12256813,1.8845003,2.58396,3.2704198,-0.060322944
118,2026-05-11 16:10:08.443048,0.54308045,-0.12256813,1.8845003,2.58396,3.2704198,-0.060322944
119,2026-05-11 16:10:08.445759,0.54308045,-0.12256813,1.8845003,2.58396,3.2704198,-0.060322944
120,2026-05-11 16:10:08.448359,0.54308045,-0.12256813,1.8845003,2.58396,3.2704198,-0.060322944
121,2026-05-11 16:10:08.451417,0.54308045,-0.12256813,1.8845003,2.58396,3.2704198,-0.060322944
122,2026-05-11 16:10:08.454365,0.54308045,-0.12256813,1.8845003,2.58396,3.2704198,-0.060322944
123,2026-05-11 16:10:08.457004,0.54308045,-0.12256813,1.8845003,2.58396,3.2704198,-0.060322944
124,2026-05-11 16:10:08.459628,0.54308045,-0.12256813,1.8845003,2.58396,3.2704198,-0.060322944
125,2026-05-11 16:10:08.462344,0.54308045,-0.12256813,1.8845003,2.58396,3.2704198,-0.060322944
126,2026-05-11 16:10:08.464924,0.54308045,-0.12256813,1.8845003,2.58396,3.2704198,-0.060322944
127,2026-05-11 16:10:08.468022,0.54308045,-0.12256813,1.8845003,2.58396,3.2704198,-0.060322944
128,2026-05-11 16:10:08.470774,0.54308045,-0.12256813,1.8845003,2.58396,3.2704198,-0.060322944
129,2026-05-11 16:10:08.473466,0.54308045,-0.12256813,1.8845003,2.58396,3.2704198,-0.060322944
130,2026-05-11 16:10:08.476282,0.54308045,-0.12256813,1.8845003,2.58396,3.2704198,-0.060322944
131,2026-05-11 16:10:08.479013,0.4732593,-0.15098442,2.1003664,2.58396,3.2704198,-0.060322944
132,2026-05-11 16:10:08.481644,0.4732593,-0.15098442,2.1003664,2.58396,3.2704198,-0.060322944
133,2026-05-11 16:10:08.484764,0.4732593,-0.15098442,2.1003664,2.58396,3.2704198,-0.060322944
134,2026-05-11 16:10:08.487533,0.4732593,-0.15098442,2.1003664,2.58396,3.2704198,-0.060322944
135,2026-05-11 16:10:08.490100,0.4732593,-0.15098442,2.1003664,2.58396,3.2704198,-0.060322944
136,2026-05-11 16:10:08.492803,0.4732593,-0.15098442,2.1003664,2.58396,3.2704198,-0.060322944
137,2026-05-11 16:10:08.495323,0.4732593,-0.15098442,2.1003664,2.58396,3.2704198,-0.060322944
138,2026-05-11 16:10:08.497846,0.4732593,-0.15098442,2.1003664,2.58396,3.2704198,-0.060322944
139,2026-05-11 16:10:08.500920,0.4732593,-0.15098442,2.1003664,2.58396,3.2704198,-0.060322944
140,2026-05-11 16:10:08.503637,0.4732593,-0.15098442,2.1003664,2.58396,3.2704198,-0.060322944
141,2026-05-11 16:10:08.506273,0.4732593,-0.15098442,2.1003664,2.58396,3.2704198,-0.060322944
142,2026-05-11 16:10:08.508999,0.4732593,-0.15098442,2.1003664,2.58396,3.2704198,-0.060322944
143,2026-05-11 16:10:08.511612,0.4732593,-0.15098442,2.1003664,2.58396,3.2704198,-0.060322944
144,2026-05-11 16:10:08.514236,0.4732593,-0.15098442,2.1003664,2.58396,3.2704198,-0.060322944
145,2026-05-11 16:10:08.517247,0.4732593,-0.15098442,2.1003664,2.58396,3.2704198,-0.060322944
146,2026-05-11 16:10:08.520008,0.4732593,-0.15098442,2.1003664,2.58396,3.2704198,-0.060322944
147,2026-05-11 16:10:08.522559,0.4732593,-0.15098442,2.1003664,2.58396,3.2704198,-0.060322944
148,2026-05-11 16:10:08.525138,0.4732593,-0.15098442,2.1003664,2.58396,3.2704198,-0.060322944
149,2026-05-11 16:10:08.527759,0.4732593,-0.15098442,2.1003664,2.58396,3.2704198,-0.060322944
150,2026-05-11 16:10:08.530297,0.4732593,-0.15098442,2.1003664,2.58396,3.2704198,-0.060322944
151,2026-05-11 16:10:08.533205,0.4732593,-0.15098442,2.1003664,2.5505152,3.2247577,-0.075289145
152,2026-05-11 16:10:08.536187,0.4732593,-0.15098442,2.1003664,2.5505152,3.2247577,-0.075289145
153,2026-05-11 16:10:08.538760,0.4732593,-0.15098442,2.1003664,2.5505152,3.2247577,-0.075289145
154,2026-05-11 16:10:08.541358,0.4732593,-0.15098442,2.1003664,2.5505152,3.2247577,-0.075289145
155,2026-05-11 16:10:08.543972,0.4732593,-0.15098442,2.1003664,2.5505152,3.2247577,-0.075289145
156,2026-05-11 16:10:08.546745,0.4732593,-0.15098442,2.1003664,2.5505152,3.2247577,-0.075289145
157,2026-05-11 16:10:08.549386,0.4732593,-0.15098442,2.1003664,2.5505152,3.2247577,-0.075289145
158,2026-05-11 16:10:08.552431,0.4732593,-0.15098442,2.1003664,2.5505152,3.2247577,-0.075289145
159,2026-05-11 16:10:08.555226,0.4732593,-0.15098442,2.1003664,2.5505152,3.2247577,-0.075289145
160,2026-05-11 16:10:08.557802,0.4732593,-0.15098442,2.1003664,2.5505152,3.2247577,-0.075289145
161,2026-05-11 16:10:08.560381,0.4732593,-0.15098442,2.1003664,2.5505152,3.2247577,-0.075289145
162,2026-05-11 16:10:08.563077,0.4732593,-0.15098442,2.1003664,2.5505152,3.2247577,-0.075289145
163,2026-05-11 16:10:08.565863,0.4732593,-0.15098442,2.1003664,2.5505152,3.2247577,-0.075289145
164,2026-05-11 16:10:08.568968,0.4732593,-0.15098442,2.1003664,2.5505152,3.2247577,-0.075289145
165,2026-05-11 16:10:08.571570,0.4732593,-0.15098442,2.1003664,2.5505152,3.2247577,-0.075289145
166,2026-05-11 16:10:08.574354,0.4732593,-0.15098442,2.1003664,2.5505152,3.2247577,-0.075289145
167,2026-05-11 16:10:08.576920,0.4732593,-0.15098442,2.1003664,2.5505152,3.2247577,-0.075289145
168,2026-05-11 16:10:08.579795,0.4732593,-0.15098442,2.1003664,2.5505152,3.2247577,-0.075289145
169,2026-05-11 16:10:08.582400,0.4732593,-0.15098442,2.1003664,2.5505152,3.2247577,-0.075289145
170,2026-05-11 16:10:08.585407,0.4732593,-0.15098442,2.1003664,2.5505152,3.2247577,-0.075289145
171,2026-05-11 16:10:08.588054,0.4732593,-0.15098442,2.1003664,2.5505152,3.2247577,-0.075289145
172,2026-05-11 16:10:08.590633,0.4732593,-0.15098442,2.1003664,2.5505152,3.2247577,-0.075289145
173,2026-05-11 16:10:08.593206,0.4732593,-0.15098442,2.1003664,2.5505152,3.2247577,-0.075289145
174,2026-05-11 16:10:08.595973,0.4732593,-0.15098442,2.1003664,2.5505152,3.2247577,-0.075289145
175,2026-05-11 16:10:08.598558,0.4732593,-0.15098442,2.1003664,2.5505152,3.2247577,-0.075289145
176,2026-05-11 16:10:08.601669,0.4732593,-0.15098442,2.1003664,2.5505152,3.2247577,-0.075289145
177,2026-05-11 16:10:08.604396,0.4732593,-0.15098442,2.1003664,2.5505152,3.2247577,-0.075289145
178,2026-05-11 16:10:08.606978,0.4732593,-0.15098442,2.1003664,2.5505152,3.2247577,-0.075289145
179,2026-05-11 16:10:08.609608,0.4732593,-0.15098442,2.1003664,2.5505152,3.2247577,-0.075289145
180,2026-05-11 16:10:08.612118,0.4732593,-0.15098442,2.1003664,2.5505152,3.2247577,-0.075289145
181,2026-05-11 16:10:08.614823,0.4732593,-0.15098442,2.1003664,2.5505152,3.2247577,-0.075289145
182,2026-05-11 16:10:08.617782,0.4732593,-0.15098442,2.1003664,2.5505152,3.2247577,-0.075289145
183,2026-05-11 16:10:08.620413,0.4732593,-0.15098442,2.1003664,2.5505152,3.2247577,-0.075289145
184,2026-05-11 16:10:08.623143,0.4732593,-0.15098442,2.1003664,2.5505152,3.2247577,-0.075289145
185,2026-05-11 16:10:08.625708,0.4732593,-0.15098442,2.1003664,2.5505152,3.2247577,-0.075289145
186,2026-05-11 16:10:08.628526,0.4732593,-0.15098442,2.1003664,2.5505152,3.2247577,-0.075289145
187,2026-05-11 16:10:08.631132,0.4732593,-0.15098442,2.1003664,2.5505152,3.2247577,-0.075289145
188,2026-05-11 16:10:08.634198,0.4732593,-0.15098442,2.1003664,2.5505152,3.2247577,-0.075289145
189,2026-05-11 16:10:08.637002,0.4732593,-0.15098442,2.1003664,2.5505152,3.2247577,-0.075289145
190,2026-05-11 16:10:08.639685,0.4732593,-0.15098442,2.1003664,2.5505152,3.2247577,-0.075289145
191,2026-05-11 16:10:08.642234,0.4732593,-0.15098442,2.1003664,2.5505152,3.2247577,-0.075289145
192,2026-05-11 16:10:08.644978,0.4732593,-0.15098442,2.1003664,2.5505152,3.2247577,-0.075289145
193,2026-05-11 16:10:08.647547,0.4732593,-0.15098442,2.1003664,2.5505152,3.2247577,-0.075289145
194,2026-05-11 16:10:08.650581,0.4732593,-0.15098442,2.1003664,2.5505152,3.2247577,-0.075289145
195,2026-05-11 16:10:08.653509,0.4732593,-0.15098442,2.1003664,2.5505152,3.2247577,-0.075289145
196,2026-05-11 16:10:08.656183,0.4732593,-0.15098442,2.1003664,2.5505152,3.2247577,-0.075289145
197,2026-05-11 16:10:08.658851,0.4732593,-0.15098442,2.1003664,2.5505152,3.2247577,-0.075289145
198,2026-05-11 16:10:08.661592,0.4732593,-0.15098442,2.1003664,2.5505152,3.2247577,-0.075289145
199,2026-05-11 16:10:08.664199,0.4732593,-0.15098442,2.1003664,2.5505152,3.2247577,-0.075289145
200,2026-05-11 16:10:08.667288,0.4732593,-0.15098442,2.1003664,2.5505152,3.2247577,-0.075289145
201,2026-05-11 16:10:08.670063,0.4732593,-0.15098442,2.1003664,2.5505152,3.2247577,-0.075289145
202,2026-05-11 16:10:08.672823,0.4732593,-0.15098442,2.1003664,2.5505152,3.2247577,-0.075289145
203,2026-05-11 16:10:08.675378,0.4732593,-0.15098442,2.1003664,2.5505152,3.2247577,-0.075289145
204,2026-05-11 16:10:08.678177,0.4732593,-0.15098442,2.1003664,2.5505152,3.2247577,-0.075289145
205,2026-05-11 16:10:08.680882,0.5685698,-0.09555435,1.8194354,2.3924537,3.110373,-0.1470658
206,2026-05-11 16:10:08.683725,0.5685698,-0.09555435,1.8194354,2.3924537,3.110373,-0.1470658
207,2026-05-11 16:10:08.686920,0.5685698,-0.09555435,1.8194354,2.3924537,3.110373,-0.1470658
208,2026-05-11 16:10:08.689656,0.5685698,-0.09555435,1.8194354,2.3924537,3.110373,-0.1470658
209,2026-05-11 16:10:08.692257,0.5685698,-0.09555435,1.8194354,2.3924537,3.110373,-0.1470658
210,2026-05-11 16:10:08.695074,0.5685698,-0.09555435,1.8194354,2.3924537,3.110373,-0.1470658
211,2026-05-11 16:10:08.697689,0.5685698,-0.09555435,1.8194354,2.3924537,3.110373,-0.1470658
212,2026-05-11 16:10:08.700365,0.5685698,-0.09555435,1.8194354,2.3924537,3.110373,-0.1470658
213,2026-05-11 16:10:08.703553,0.5685698,-0.09555435,1.8194354,2.3924537,3.110373,-0.1470658
214,2026-05-11 16:10:08.706462,0.5685698,-0.09555435,1.8194354,2.3924537,3.110373,-0.1470658
215,2026-05-11 16:10:08.709033,0.5685698,-0.09555435,1.8194354,2.3924537,3.110373,-0.1470658
216,2026-05-11 16:10:08.711646,0.5685698,-0.09555435,1.8194354,2.3924537,3.110373,-0.1470658
217,2026-05-11 16:10:08.714393,0.5685698,-0.09555435,1.8194354,2.3924537,3.110373,-0.1470658
218,2026-05-11 16:10:08.717424,0.5685698,-0.09555435,1.8194354,2.3924537,3.110373,-0.1470658
219,2026-05-11 16:10:08.720468,0.5685698,-0.09555435,1.8194354,2.3924537,3.110373,-0.1470658
220,2026-05-11 16:10:08.723562,0.7333355,-0.07049192,1.873768,2.3924537,3.110373,-0.1470658
221,2026-05-11 16:10:08.726630,0.7333355,-0.07049192,1.873768,2.3924537,3.110373,-0.1470658
222,2026-05-11 16:10:08.729473,0.7333355,-0.07049192,1.873768,2.3924537,3.110373,-0.1470658
223,2026-05-11 16:10:08.732263,0.7333355,-0.07049192,1.873768,2.3924537,3.110373,-0.1470658
224,2026-05-11 16:10:08.735505,0.7333355,-0.07049192,1.873768,2.3924537,3.110373,-0.1470658
225,2026-05-11 16:10:08.738267,0.7333355,-0.07049192,1.873768,2.3924537,3.110373,-0.1470658
226,2026-05-11 16:10:08.740997,0.7333355,-0.07049192,1.873768,2.3924537,3.110373,-0.1470658
227,2026-05-11 16:10:08.743899,0.7333355,-0.07049192,1.873768,2.3924537,3.110373,-0.1470658
228,2026-05-11 16:10:08.746499,0.7333355,-0.07049192,1.873768,2.3924537,3.110373,-0.1470658
229,2026-05-11 16:10:08.749319,0.7333355,-0.07049192,1.873768,2.3924537,3.110373,-0.1470658
230,2026-05-11 16:10:08.752385,0.7333355,-0.07049192,1.873768,2.0847304,3.0133982,-0.28893927
231,2026-05-11 16:10:08.755094,0.7333355,-0.07049192,1.873768,2.0847304,3.0133982,-0.28893927
232,2026-05-11 16:10:08.757649,0.7333355,-0.07049192,1.873768,2.0847304,3.0133982,-0.28893927
233,2026-05-11 16:10:08.760469,0.7333355,-0.07049192,1.873768,2.0847304,3.0133982,-0.28893927
234,2026-05-11 16:10:08.763071,0.7333355,-0.07049192,1.873768,2.0847304,3.0133982,-0.28893927
235,2026-05-11 16:10:08.766343,0.7333355,-0.07049192,1.873768,2.0847304,3.0133982,-0.28893927
236,2026-05-11 16:10:08.769224,0.7333355,-0.07049192,1.873768,2.0847304,3.0133982,-0.28893927
237,2026-05-11 16:10:08.771989,0.7333355,-0.07049192,1.873768,2.0847304,3.0133982,-0.28893927
238,2026-05-11 16:10:08.774596,0.7333355,-0.07049192,1.873768,2.0847304,3.0133982,-0.28893927
239,2026-05-11 16:10:08.777168,0.7333355,-0.07049192,1.873768,2.0847304,3.0133982,-0.28893927
240,2026-05-11 16:10:08.779758,0.7333355,-0.07049192,1.873768,2.0847304,3.0133982,-0.28893927
241,2026-05-11 16:10:08.782403,0.7333355,-0.07049192,1.873768,2.0847304,3.0133982,-0.28893927
242,2026-05-11 16:10:08.785581,0.7333355,-0.07049192,1.873768,2.0847304,3.0133982,-0.28893927
243,2026-05-11 16:10:08.788425,0.7333355,-0.07049192,1.873768,2.0847304,3.0133982,-0.28893927
244,2026-05-11 16:10:08.791039,0.7333355,-0.07049192,1.873768,2.0847304,3.0133982,-0.28893927
245,2026-05-11 16:10:08.793669,0.7333355,-0.07049192,1.873768,2.0847304,3.0133982,-0.28893927
246,2026-05-11 16:10:08.796479,0.7333355,-0.07049192,1.873768,2.0847304,3.0133982,-0.28893927
247,2026-05-11 16:10:08.799264,0.7333355,-0.07049192,1.873768,2.0847304,3.0133982,-0.28893927
248,2026-05-11 16:10:08.802676,0.7333355,-0.07049192,1.873768,2.0847304,3.0133982,-0.28893927
249,2026-05-11 16:10:08.805525,0.7333355,-0.07049192,1.873768,2.0847304,3.0133982,-0.28893927
250,2026-05-11 16:10:08.808304,0.7333355,-0.07049192,1.873768,2.0847304,3.0133982,-0.28893927
251,2026-05-11 16:10:08.810901,0.7333355,-0.07049192,1.873768,2.0847304,3.0133982,-0.28893927
252,2026-05-11 16:10:08.813599,0.7333355,-0.07049192,1.873768,2.0847304,3.0133982,-0.28893927
253,2026-05-11 16:10:08.816714,0.7333355,-0.07049192,1.873768,2.0847304,3.0133982,-0.28893927
254,2026-05-11 16:10:08.819561,0.7333355,-0.07049192,1.873768,2.0847304,3.0133982,-0.28893927
255,2026-05-11 16:10:08.822215,0.89249104,-0.096042186,2.069999,1.9894354,2.990338,-0.47708577
256,2026-05-11 16:10:08.824980,0.89249104,-0.096042186,2.069999,1.9894354,2.990338,-0.47708577
257,2026-05-11 16:10:08.827664,0.89249104,-0.096042186,2.069999,1.9894354,2.990338,-0.47708577
258,2026-05-11 16:10:08.830402,0.89249104,-0.096042186,2.069999,1.9894354,2.990338,-0.47708577
259,2026-05-11 16:10:08.833352,0.89249104,-0.096042186,2.069999,1.9894354,2.990338,-0.47708577
260,2026-05-11 16:10:08.836277,0.89249104,-0.096042186,2.069999,1.9894354,2.990338,-0.47708577
261,2026-05-11 16:10:08.839069,0.89249104,-0.096042186,2.069999,1.9894354,2.990338,-0.47708577
262,2026-05-11 16:10:08.841699,0.89249104,-0.096042186,2.069999,1.9894354,2.990338,-0.47708577
263,2026-05-11 16:10:08.844312,0.89249104,-0.096042186,2.069999,1.9894354,2.990338,-0.47708577
264,2026-05-11 16:10:08.847085,0.89249104,-0.096042186,2.069999,1.9894354,2.990338,-0.47708577
265,2026-05-11 16:10:08.850251,0.89249104,-0.096042186,2.069999,1.9894354,2.990338,-0.47708577
266,2026-05-11 16:10:08.853147,0.89249104,-0.096042186,2.069999,1.9894354,2.990338,-0.47708577
267,2026-05-11 16:10:08.855739,0.89249104,-0.096042186,2.069999,1.9894354,2.990338,-0.47708577
268,2026-05-11 16:10:08.858589,0.89249104,-0.096042186,2.069999,1.9894354,2.990338,-0.47708577
269,2026-05-11 16:10:08.861298,0.89249104,-0.096042186,2.069999,1.9894354,2.990338,-0.47708577
270,2026-05-11 16:10:08.864040,0.89249104,-0.096042186,2.069999,1.9894354,2.990338,-0.47708577
271,2026-05-11 16:10:08.867168,0.89249104,-0.096042186,2.069999,1.9894354,2.990338,-0.47708577
272,2026-05-11 16:10:08.869973,0.89249104,-0.096042186,2.069999,1.9894354,2.990338,-0.47708577
273,2026-05-11 16:10:08.872566,0.89249104,-0.096042186,2.069999,1.9894354,2.990338,-0.47708577
274,2026-05-11 16:10:08.875322,0.89249104,-0.096042186,2.069999,1.9894354,2.990338,-0.47708577
275,2026-05-11 16:10:08.877864,0.89249104,-0.096042186,2.069999,1.9894354,2.990338,-0.47708577
276,2026-05-11 16:10:08.880505,0.89249104,-0.096042186,2.069999,1.9894354,2.990338,-0.47708577
277,2026-05-11 16:10:08.883307,0.89249104,-0.096042186,2.069999,1.9894354,2.990338,-0.47708577
278,2026-05-11 16:10:08.886154,0.89249104,-0.096042186,2.069999,1.9894354,2.990338,-0.47708577
279,2026-05-11 16:10:08.888816,0.89249104,-0.096042186,2.069999,1.9894354,2.990338,-0.47708577
280,2026-05-11 16:10:08.891357,0.89249104,-0.096042186,2.069999,1.9894354,2.990338,-0.47708577
281,2026-05-11 16:10:08.893969,0.89249104,-0.096042186,2.069999,1.9894354,2.990338,-0.47708577
282,2026-05-11 16:10:08.896492,0.89249104,-0.096042186,2.069999,1.9894354,2.990338,-0.47708577
283,2026-05-11 16:10:08.899190,0.89249104,-0.096042186,2.069999,1.9894354,2.990338,-0.47708577
284,2026-05-11 16:10:08.902192,0.89249104,-0.096042186,2.069999,1.9894354,2.990338,-0.47708577
285,2026-05-11 16:10:08.904938,0.89249104,-0.096042186,2.069999,1.9894354,2.990338,-0.47708577
286,2026-05-11 16:10:08.907629,0.89249104,-0.096042186,2.069999,1.9894354,2.990338,-0.47708577
287,2026-05-11 16:10:08.910217,0.89249104,-0.096042186,2.069999,1.9894354,2.990338,-0.47708577
288,2026-05-11 16:10:08.912849,0.89249104,-0.096042186,2.069999,1.9894354,2.990338,-0.47708577
289,2026-05-11 16:10:08.915408,0.89249104,-0.096042186,2.069999,1.9894354,2.990338,-0.47708577
290,2026-05-11 16:10:08.918468,0.89249104,-0.096042186,2.069999,1.9894354,2.990338,-0.47708577
291,2026-05-11 16:10:08.921096,0.89249104,-0.096042186,2.069999,1.9894354,2.990338,-0.47708577
292,2026-05-11 16:10:08.923786,0.89249104,-0.096042186,2.069999,1.9894354,2.990338,-0.47708577
293,2026-05-11 16:10:08.926383,0.89249104,-0.096042186,2.069999,1.9894354,2.990338,-0.47708577
294,2026-05-11 16:10:08.929126,0.89249104,-0.096042186,2.069999,1.9894354,2.990338,-0.47708577
295,2026-05-11 16:10:08.931709,0.89249104,-0.096042186,2.069999,1.9894354,2.990338,-0.47708577
296,2026-05-11 16:10:08.934658,0.89249104,-0.096042186,2.069999,1.9894354,2.990338,-0.47708577
297,2026-05-11 16:10:08.937344,0.89249104,-0.096042186,2.069999,1.9894354,2.990338,-0.47708577
298,2026-05-11 16:10:08.939942,0.89249104,-0.096042186,2.069999,1.9894354,2.990338,-0.47708577
299,2026-05-11 16:10:08.942456,0.89249104,-0.096042186,2.069999,1.9894354,2.990338,-0.47708577
300,2026-05-11 16:10:08.945171,0.89249104,-0.096042186,2.069999,1.9894354,2.990338,-0.47708577
301,2026-05-11 16:10:08.947689,0.89249104,-0.096042186,2.069999,1.9894354,2.990338,-0.47708577
302,2026-05-11 16:10:08.950740,0.89249104,-0.096042186,2.069999,1.9894354,2.990338,-0.47708577
303,2026-05-11 16:10:08.953371,0.89249104,-0.096042186,2.069999,1.9894354,2.990338,-0.47708577
304,2026-05-11 16:10:08.955898,0.89249104,-0.096042186,2.069999,1.9894354,2.990338,-0.47708577
305,2026-05-11 16:10:08.958594,0.89249104,-0.096042186,2.069999,1.9894354,2.990338,-0.47708577
306,2026-05-11 16:10:08.961152,0.89249104,-0.096042186,2.069999,1.9894354,2.990338,-0.47708577
307,2026-05-11 16:10:08.963708,0.89249104,-0.096042186,2.069999,1.9894354,2.990338,-0.47708577
308,2026-05-11 16:10:08.966803,0.89249104,-0.096042186,2.069999,1.9894354,2.990338,-0.47708577
309,2026-05-11 16:10:08.969457,0.89249104,-0.096042186,2.069999,1.9894354,2.990338,-0.47708577
310,2026-05-11 16:10:08.971999,0.89249104,-0.096042186,2.069999,1.9894354,2.990338,-0.47708577
311,2026-05-11 16:10:08.974711,0.89249104,-0.096042186,2.069999,1.9894354,2.990338,-0.47708577
312,2026-05-11 16:10:08.977333,0.89249104,-0.096042186,2.069999,1.9894354,2.990338,-0.47708577
313,2026-05-11 16:10:08.979883,0.89249104,-0.096042186,2.069999,1.9894354,2.990338,-0.47708577
314,2026-05-11 16:10:08.982531,0.89249104,-0.096042186,2.069999,1.9894354,2.990338,-0.47708577
315,2026-05-11 16:10:08.985561,0.89249104,-0.096042186,2.069999,2.5696046,3.4701726,-0.9095783
316,2026-05-11 16:10:08.988455,0.89249104,-0.096042186,2.069999,2.5696046,3.4701726,-0.9095783
317,2026-05-11 16:10:08.991125,0.89249104,-0.096042186,2.069999,2.5696046,3.4701726,-0.9095783
318,2026-05-11 16:10:08.993776,0.84321994,-0.2824555,2.3137326,2.5696046,3.4701726,-0.9095783
319,2026-05-11 16:10:08.996494,0.84321994,-0.2824555,2.3137326,2.5696046,3.4701726,-0.9095783
320,2026-05-11 16:10:08.999043,0.84321994,-0.2824555,2.3137326,2.5696046,3.4701726,-0.9095783
321,2026-05-11 16:10:09.002239,0.84321994,-0.2824555,2.3137326,2.5696046,3.4701726,-0.9095783
322,2026-05-11 16:10:09.004968,0.84321994,-0.2824555,2.3137326,2.5696046,3.4701726,-0.9095783
323,2026-05-11 16:10:09.007709,0.84321994,-0.2824555,2.3137326,2.5696046,3.4701726,-0.9095783
324,2026-05-11 16:10:09.010341,0.84321994,-0.2824555,2.3137326,2.5696046,3.4701726,-0.9095783
325,2026-05-11 16:10:09.013159,0.84321994,-0.2824555,2.3137326,2.5696046,3.4701726,-0.9095783
326,2026-05-11 16:10:09.015840,0.84321994,-0.2824555,2.3137326,2.5696046,3.4701726,-0.9095783
327,2026-05-11 16:10:09.018973,0.84321994,-0.2824555,2.3137326,2.5696046,3.4701726,-0.9095783
328,2026-05-11 16:10:09.021568,0.84321994,-0.2824555,2.3137326,2.5696046,3.4701726,-0.9095783
329,2026-05-11 16:10:09.024083,0.84321994,-0.2824555,2.3137326,2.5696046,3.4701726,-0.9095783
330,2026-05-11 16:10:09.026791,0.84321994,-0.2824555,2.3137326,2.5696046,3.4701726,-0.9095783
331,2026-05-11 16:10:09.029497,0.84321994,-0.2824555,2.3137326,2.5696046,3.4701726,-0.9095783
332,2026-05-11 16:10:09.032051,0.84321994,-0.2824555,2.3137326,2.5696046,3.4701726,-0.9095783
333,2026-05-11 16:10:09.035023,0.84321994,-0.2824555,2.3137326,2.5696046,3.4701726,-0.9095783
334,2026-05-11 16:10:09.037646,0.84321994,-0.2824555,2.3137326,2.5696046,3.4701726,-0.9095783
335,2026-05-11 16:10:09.040340,0.84321994,-0.2824555,2.3137326,2.5696046,3.4701726,-0.9095783
336,2026-05-11 16:10:09.043009,0.84321994,-0.2824555,2.3137326,2.5696046,3.4701726,-0.9095783
337,2026-05-11 16:10:09.045546,0.84321994,-0.2824555,2.3137326,2.5696046,3.4701726,-0.9095783
338,2026-05-11 16:10:09.048098,0.84321994,-0.2824555,2.3137326,2.5696046,3.4701726,-0.9095783
339,2026-05-11 16:10:09.051068,0.84321994,-0.2824555,2.3137326,2.5696046,3.4701726,-0.9095783
340,2026-05-11 16:10:09.053791,0.84321994,-0.2824555,2.3137326,2.5696046,3.4701726,-0.9095783
341,2026-05-11 16:10:09.056313,0.84321994,-0.2824555,2.3137326,2.5696046,3.4701726,-0.9095783
342,2026-05-11 16:10:09.058823,0.84321994,-0.2824555,2.3137326,2.5696046,3.4701726,-0.9095783
343,2026-05-11 16:10:09.061386,0.84321994,-0.2824555,2.3137326,2.5696046,3.4701726,-0.9095783
344,2026-05-11 16:10:09.063989,0.84321994,-0.2824555,2.3137326,2.5696046,3.4701726,-0.9095783
345,2026-05-11 16:10:09.067131,0.84321994,-0.2824555,2.3137326,2.5696046,3.4701726,-0.9095783
346,2026-05-11 16:10:09.069861,0.84321994,-0.2824555,2.3137326,2.5696046,3.4701726,-0.9095783
347,2026-05-11 16:10:09.072433,0.84321994,-0.2824555,2.3137326,2.5696046,3.4701726,-0.9095783
348,2026-05-11 16:10:09.075148,0.84321994,-0.2824555,2.3137326,2.5696046,3.4701726,-0.9095783
349,2026-05-11 16:10:09.077742,0.84321994,-0.2824555,2.3137326,2.5696046,3.4701726,-0.9095783
350,2026-05-11 16:10:09.080369,0.84321994,-0.2824555,2.3137326,2.5696046,3.4701726,-0.9095783
351,2026-05-11 16:10:09.083183,0.84321994,-0.2824555,2.3137326,2.5696046,3.4701726,-0.9095783
352,2026-05-11 16:10:09.086321,0.84321994,-0.2824555,2.3137326,2.5696046,3.4701726,-0.9095783
353,2026-05-11 16:10:09.089104,0.84321994,-0.2824555,2.3137326,2.5696046,3.4701726,-0.9095783
354,2026-05-11 16:10:09.091780,0.84321994,-0.2824555,2.3137326,2.5696046,3.4701726,-0.9095783
355,2026-05-11 16:10:09.094559,0.7365674,-0.38453463,2.2463505,2.5696046,3.4701726,-0.9095783
356,2026-05-11 16:10:09.097275,0.7365674,-0.38453463,2.2463505,2.5696046,3.4701726,-0.9095783
357,2026-05-11 16:10:09.100452,0.7365674,-0.38453463,2.2463505,2.5696046,3.4701726,-0.9095783
358,2026-05-11 16:10:09.103275,0.7365674,-0.38453463,2.2463505,2.5696046,3.4701726,-0.9095783
359,2026-05-11 16:10:09.105878,0.7365674,-0.38453463,2.2463505,2.5696046,3.4701726,-0.9095783
360,2026-05-11 16:10:09.108789,0.7365674,-0.38453463,2.2463505,2.5696046,3.4701726,-0.9095783
361,2026-05-11 16:10:09.111393,0.7365674,-0.38453463,2.2463505,2.5696046,3.4701726,-0.9095783
362,2026-05-11 16:10:09.114105,0.7365674,-0.38453463,2.2463505,2.5696046,3.4701726,-0.9095783
363,2026-05-11 16:10:09.117178,0.7365674,-0.38453463,2.2463505,2.5696046,3.4701726,-0.9095783
364,2026-05-11 16:10:09.120027,0.7365674,-0.38453463,2.2463505,2.5696046,3.4701726,-0.9095783
365,2026-05-11 16:10:09.122722,0.7365674,-0.38453463,2.2463505,2.5696046,3.4701726,-0.9095783
366,2026-05-11 16:10:09.125378,0.7365674,-0.38453463,2.2463505,2.5696046,3.4701726,-0.9095783
367,2026-05-11 16:10:09.127989,0.7365674,-0.38453463,2.2463505,2.5696046,3.4701726,-0.9095783
368,2026-05-11 16:10:09.130695,0.7365674,-0.38453463,2.2463505,2.5696046,3.4701726,-0.9095783
369,2026-05-11 16:10:09.133627,0.7365674,-0.38453463,2.2463505,2.908635,3.8887682,-0.9195049
370,2026-05-11 16:10:09.136424,0.7365674,-0.38453463,2.2463505,2.908635,3.8887682,-0.9195049
371,2026-05-11 16:10:09.139133,0.7365674,-0.38453463,2.2463505,2.908635,3.8887682,-0.9195049
372,2026-05-11 16:10:09.141730,0.7365674,-0.38453463,2.2463505,2.908635,3.8887682,-0.9195049
373,2026-05-11 16:10:09.144336,0.7365674,-0.38453463,2.2463505,2.908635,3.8887682,-0.9195049
374,2026-05-11 16:10:09.146876,0.7365674,-0.38453463,2.2463505,2.908635,3.8887682,-0.9195049
375,2026-05-11 16:10:09.149746,0.7365674,-0.38453463,2.2463505,2.908635,3.8887682,-0.9195049
376,2026-05-11 16:10:09.152514,0.7365674,-0.38453463,2.2463505,2.908635,3.8887682,-0.9195049
377,2026-05-11 16:10:09.155083,0.7365674,-0.38453463,2.2463505,2.908635,3.8887682,-0.9195049
378,2026-05-11 16:10:09.157735,0.7365674,-0.38453463,2.2463505,2.908635,3.8887682,-0.9195049
379,2026-05-11 16:10:09.160277,0.7365674,-0.38453463,2.2463505,2.908635,3.8887682,-0.9195049
380,2026-05-11 16:10:09.162807,0.7365674,-0.38453463,2.2463505,2.908635,3.8887682,-0.9195049
381,2026-05-11 16:10:09.165575,0.7365674,-0.38453463,2.2463505,2.908635,3.8887682,-0.9195049
382,2026-05-11 16:10:09.168558,0.7365674,-0.38453463,2.2463505,2.908635,3.8887682,-0.9195049
383,2026-05-11 16:10:09.171378,0.7365674,-0.38453463,2.2463505,2.908635,3.8887682,-0.9195049
384,2026-05-11 16:10:09.173978,0.7365674,-0.38453463,2.2463505,2.908635,3.8887682,-0.9195049
385,2026-05-11 16:10:09.176553,0.7365674,-0.38453463,2.2463505,2.908635,3.8887682,-0.9195049
386,2026-05-11 16:10:09.179305,0.7365674,-0.38453463,2.2463505,2.908635,3.8887682,-0.9195049
387,2026-05-11 16:10:09.181887,0.7365674,-0.38453463,2.2463505,2.908635,3.8887682,-0.9195049
388,2026-05-11 16:10:09.184950,0.7365674,-0.38453463,2.2463505,2.908635,3.8887682,-0.9195049
389,2026-05-11 16:10:09.187645,0.7365674,-0.38453463,2.2463505,2.908635,3.8887682,-0.9195049
390,2026-05-11 16:10:09.190265,0.7365674,-0.38453463,2.2463505,2.908635,3.8887682,-0.9195049
391,2026-05-11 16:10:09.192992,0.7365674,-0.38453463,2.2463505,2.908635,3.8887682,-0.9195049
392,2026-05-11 16:10:09.195571,0.7365674,-0.38453463,2.2463505,2.908635,3.8887682,-0.9195049
393,2026-05-11 16:10:09.198145,0.7365674,-0.38453463,2.2463505,2.908635,3.8887682,-0.9195049
394,2026-05-11 16:10:09.200984,0.7365674,-0.38453463,2.2463505,2.908635,3.8887682,-0.9195049
395,2026-05-11 16:10:09.203819,0.7365674,-0.38453463,2.2463505,2.908635,3.8887682,-0.9195049
396,2026-05-11 16:10:09.206403,0.7365674,-0.38453463,2.2463505,2.908635,3.8887682,-0.9195049
397,2026-05-11 16:10:09.208941,0.7365674,-0.38453463,2.2463505,2.908635,3.8887682,-0.9195049
398,2026-05-11 16:10:09.211605,0.7365674,-0.38453463,2.2463505,2.908635,3.8887682,-0.9195049
399,2026-05-11 16:10:09.214143,0.7365674,-0.38453463,2.2463505,2.908635,3.8887682,-0.9195049
400,2026-05-11 16:10:09.217129,0.7365674,-0.38453463,2.2463505,2.908635,3.8887682,-0.9195049
401,2026-05-11 16:10:09.219950,0.7365674,-0.38453463,2.2463505,2.908635,3.8887682,-0.9195049
402,2026-05-11 16:10:09.226550,0.7365674,-0.38453463,2.2463505,2.908635,3.8887682,-0.9195049
403,2026-05-11 16:10:09.248353,0.67863715,-0.54728806,1.3834344,3.5434766,5.491373,-0.8526152
404,2026-05-11 16:10:09.252494,0.67863715,-0.54728806,1.3834344,3.5434766,5.491373,-0.8526152
405,2026-05-11 16:10:09.260637,0.67863715,-0.54728806,1.3834344,3.5434766,5.491373,-0.8526152
406,2026-05-11 16:10:09.263383,0.67863715,-0.54728806,1.3834344,3.5434766,5.491373,-0.8526152
407,2026-05-11 16:10:09.266001,0.67863715,-0.54728806,1.3834344,3.5434766,5.491373,-0.8526152
408,2026-05-11 16:10:09.269272,0.67863715,-0.54728806,1.3834344,3.5434766,5.491373,-0.8526152
409,2026-05-11 16:10:09.271972,0.67863715,-0.54728806,1.3834344,3.7920988,5.5390205,-0.75854194
410,2026-05-11 16:10:09.274567,0.67863715,-0.54728806,1.3834344,3.7920988,5.5390205,-0.75854194
411,2026-05-11 16:10:09.277136,0.7213836,-0.5669843,1.027682,3.7920988,5.5390205,-0.75854194
412,2026-05-11 16:10:09.279751,0.7213836,-0.5669843,1.027682,3.7920988,5.5390205,-0.75854194
413,2026-05-11 16:10:09.282359,0.7213836,-0.5669843,1.027682,3.7920988,5.5390205,-0.75854194
414,2026-05-11 16:10:09.285620,0.7213836,-0.5669843,1.027682,3.7920988,5.5390205,-0.75854194
415,2026-05-11 16:10:09.288315,0.7213836,-0.5669843,1.027682,3.7920988,5.5390205,-0.75854194
416,2026-05-11 16:10:09.290906,0.7213836,-0.5669843,1.027682,3.7920988,5.5390205,-0.75854194
417,2026-05-11 16:10:09.293498,0.7213836,-0.5669843,1.027682,3.7920988,5.5390205,-0.75854194
418,2026-05-11 16:10:09.296297,0.7213836,-0.5669843,1.027682,3.7920988,5.5390205,-0.75854194
419,2026-05-11 16:10:09.299070,0.7213836,-0.5669843,1.027682,3.7920988,5.5390205,-0.75854194
420,2026-05-11 16:10:09.302236,0.7213836,-0.5669843,1.027682,3.7920988,5.5390205,-0.75854194
421,2026-05-11 16:10:09.304918,0.7213836,-0.5669843,1.027682,3.7920988,5.5390205,-0.75854194
422,2026-05-11 16:10:09.307588,0.7213836,-0.5669843,1.027682,3.7920988,5.5390205,-0.75854194
423,2026-05-11 16:10:09.310186,0.7213836,-0.5669843,1.027682,3.7920988,5.5390205,-0.75854194
424,2026-05-11 16:10:09.312962,0.7213836,-0.5669843,1.027682,3.7920988,5.5390205,-0.75854194
425,2026-05-11 16:10:09.315694,0.7213836,-0.5669843,1.027682,4.5376596,5.317582,-0.3923282
426,2026-05-11 16:10:09.318843,0.7213836,-0.5669843,1.027682,4.5376596,5.317582,-0.3923282
427,2026-05-11 16:10:09.321566,0.7213836,-0.5669843,1.027682,4.5376596,5.317582,-0.3923282
428,2026-05-11 16:10:09.324335,0.7213836,-0.5669843,1.027682,4.5376596,5.317582,-0.3923282
429,2026-05-11 16:10:09.326949,0.7213836,-0.5669843,1.027682,4.5376596,5.317582,-0.3923282
430,2026-05-11 16:10:09.329564,0.7213836,-0.5669843,1.027682,4.5376596,5.317582,-0.3923282
431,2026-05-11 16:10:09.332196,0.7213836,-0.5669843,1.027682,4.5376596,5.317582,-0.3923282
432,2026-05-11 16:10:09.335480,0.7213836,-0.5669843,1.027682,4.5376596,5.317582,-0.3923282
433,2026-05-11 16:10:09.338287,0.7213836,-0.5669843,1.027682,4.5376596,5.317582,-0.3923282
434,2026-05-11 16:10:09.341038,0.7213836,-0.5669843,1.027682,4.5376596,5.317582,-0.3923282
435,2026-05-11 16:10:09.343610,0.7213836,-0.5669843,1.027682,4.5376596,5.317582,-0.3923282
436,2026-05-11 16:10:09.346398,0.7213836,-0.5669843,1.027682,4.5376596,5.317582,-0.3923282
437,2026-05-11 16:10:09.349106,0.7213836,-0.5669843,1.027682,4.5376596,5.317582,-0.3923282
438,2026-05-11 16:10:09.352503,0.7213836,-0.5669843,1.027682,4.5376596,5.317582,-0.3923282
439,2026-05-11 16:10:09.355138,0.7213836,-0.5669843,1.027682,4.5376596,5.317582,-0.3923282
440,2026-05-11 16:10:09.357742,0.7213836,-0.5669843,1.027682,4.5376596,5.317582,-0.3923282
441,2026-05-11 16:10:09.360350,0.7213836,-0.5669843,1.027682,4.5376596,5.317582,-0.3923282
442,2026-05-11 16:10:09.362893,0.7213836,-0.5669843,1.027682,4.5376596,5.317582,-0.3923282
443,2026-05-11 16:10:09.365482,0.7213836,-0.5669843,1.027682,4.5376596,5.317582,-0.3923282
444,2026-05-11 16:10:09.368594,0.7213836,-0.5669843,1.027682,4.5376596,5.317582,-0.3923282
445,2026-05-11 16:10:09.371435,0.7213836,-0.5669843,1.027682,4.5376596,5.317582,-0.3923282
446,2026-05-11 16:10:09.374030,0.7213836,-0.5669843,1.027682,4.5376596,5.317582,-0.3923282
447,2026-05-11 16:10:09.376625,0.7213836,-0.5669843,1.027682,4.5376596,5.317582,-0.3923282
448,2026-05-11 16:10:09.379410,0.8470006,-0.47838157,0.91444355,4.5376596,5.317582,-0.3923282
449,2026-05-11 16:10:09.382002,0.8470006,-0.47838157,0.91444355,4.5376596,5.317582,-0.3923282
450,2026-05-11 16:10:09.385262,0.8470006,-0.47838157,0.91444355,4.5376596,5.317582,-0.3923282
451,2026-05-11 16:10:09.388024,0.8470006,-0.47838157,0.91444355,4.5376596,5.317582,-0.3923282
452,2026-05-11 16:10:09.390818,0.8470006,-0.47838157,0.91444355,4.5376596,5.317582,-0.3923282
453,2026-05-11 16:10:09.393453,0.8470006,-0.47838157,0.91444355,4.5376596,5.317582,-0.3923282
454,2026-05-11 16:10:09.395989,0.8470006,-0.47838157,0.91444355,4.5376596,5.317582,-0.3923282
455,2026-05-11 16:10:09.398752,0.8470006,-0.47838157,0.91444355,4.5376596,5.317582,-0.3923282
456,2026-05-11 16:10:09.401786,0.8470006,-0.47838157,0.91444355,4.5376596,5.317582,-0.3923282
457,2026-05-11 16:10:09.404583,0.8470006,-0.47838157,0.91444355,4.5376596,5.317582,-0.3923282
458,2026-05-11 16:10:09.407255,0.8470006,-0.47838157,0.91444355,4.5376596,5.317582,-0.3923282
459,2026-05-11 16:10:09.409999,0.8470006,-0.47838157,0.91444355,4.5376596,5.317582,-0.3923282
460,2026-05-11 16:10:09.412641,0.8470006,-0.47838157,0.91444355,4.5376596,5.317582,-0.3923282
461,2026-05-11 16:10:09.415220,0.8470006,-0.47838157,0.91444355,4.5376596,5.317582,-0.3923282
462,2026-05-11 16:10:09.418343,0.8470006,-0.47838157,0.91444355,4.5376596,5.317582,-0.3923282
463,2026-05-11 16:10:09.421116,0.8470006,-0.47838157,0.91444355,4.5376596,5.317582,-0.3923282
464,2026-05-11 16:10:09.423794,0.8470006,-0.47838157,0.91444355,4.5376596,5.317582,-0.3923282
465,2026-05-11 16:10:09.426376,0.8470006,-0.47838157,0.91444355,4.5376596,5.317582,-0.3923282
466,2026-05-11 16:10:09.429166,0.8470006,-0.47838157,0.91444355,4.5376596,5.317582,-0.3923282
467,2026-05-11 16:10:09.431783,0.8470006,-0.47838157,0.91444355,4.5376596,5.317582,-0.3923282
468,2026-05-11 16:10:09.434695,0.8470006,-0.47838157,0.91444355,4.5376596,5.317582,-0.3923282
469,2026-05-11 16:10:09.437900,0.8470006,-0.47838157,0.91444355,4.5376596,5.317582,-0.3923282
470,2026-05-11 16:10:09.440709,0.8470006,-0.47838157,0.91444355,4.5376596,5.317582,-0.3923282
471,2026-05-11 16:10:09.443301,0.8470006,-0.47838157,0.91444355,4.5376596,5.317582,-0.3923282
472,2026-05-11 16:10:09.446021,0.8470006,-0.47838157,0.91444355,4.5376596,5.317582,-0.3923282
473,2026-05-11 16:10:09.448596,0.8470006,-0.47838157,0.91444355,4.5376596,5.317582,-0.3923282
474,2026-05-11 16:10:09.451939,0.8470006,-0.47838157,0.91444355,4.5376596,5.317582,-0.3923282
475,2026-05-11 16:10:09.455072,0.8470006,-0.47838157,0.91444355,4.5376596,5.317582,-0.3923282
476,2026-05-11 16:10:09.457718,0.8470006,-0.47838157,0.91444355,4.5376596,5.317582,-0.3923282
477,2026-05-11 16:10:09.460323,0.8470006,-0.47838157,0.91444355,4.5376596,5.317582,-0.3923282
478,2026-05-11 16:10:09.463090,0.8470006,-0.47838157,0.91444355,4.5376596,5.317582,-0.3923282
479,2026-05-11 16:10:09.465827,0.8470006,-0.47838157,0.91444355,4.5376596,5.317582,-0.3923282
480,2026-05-11 16:10:09.468922,0.8470006,-0.47838157,0.91444355,4.5376596,5.317582,-0.3923282
481,2026-05-11 16:10:09.471553,0.8470006,-0.47838157,0.91444355,4.5376596,5.317582,-0.3923282
482,2026-05-11 16:10:09.474157,0.8470006,-0.47838157,0.91444355,4.5376596,5.317582,-0.3923282
483,2026-05-11 16:10:09.476712,0.8470006,-0.47838157,0.91444355,4.5376596,5.317582,-0.3923282
484,2026-05-11 16:10:09.479530,0.8470006,-0.47838157,0.91444355,4.5376596,5.317582,-0.3923282
485,2026-05-11 16:10:09.482114,0.8470006,-0.47838157,0.91444355,4.5376596,5.317582,-0.3923282
486,2026-05-11 16:10:09.485201,0.8470006,-0.47838157,0.91444355,4.5376596,5.317582,-0.3923282
487,2026-05-11 16:10:09.487875,0.8470006,-0.47838157,0.91444355,4.5376596,5.317582,-0.3923282
488,2026-05-11 16:10:09.490440,0.8470006,-0.47838157,0.91444355,4.5376596,5.317582,-0.3923282
489,2026-05-11 16:10:09.493204,0.8470006,-0.47838157,0.91444355,4.5376596,5.317582,-0.3923282
490,2026-05-11 16:10:09.495823,0.8470006,-0.47838157,0.91444355,4.5376596,5.317582,-0.3923282
491,2026-05-11 16:10:09.498402,0.8470006,-0.47838157,0.91444355,4.5376596,5.317582,-0.3923282
492,2026-05-11 16:10:09.501464,0.8470006,-0.47838157,0.91444355,4.5376596,5.317582,-0.3923282
493,2026-05-11 16:10:09.504213,0.8470006,-0.47838157,0.91444355,4.5376596,5.317582,-0.3923282
494,2026-05-11 16:10:09.506982,0.8470006,-0.47838157,0.91444355,4.5376596,5.317582,-0.3923282
495,2026-05-11 16:10:09.509550,0.8470006,-0.47838157,0.91444355,4.5376596,5.317582,-0.3923282
496,2026-05-11 16:10:09.512227,0.8470006,-0.47838157,0.91444355,4.5376596,5.317582,-0.3923282
497,2026-05-11 16:10:09.514791,0.8470006,-0.47838157,0.91444355,4.5376596,5.317582,-0.3923282
498,2026-05-11 16:10:09.517807,0.8470006,-0.47838157,0.91444355,4.5376596,5.317582,-0.3923282
499,2026-05-11 16:10:09.520514,0.8470006,-0.47838157,0.91444355,4.5376596,5.317582,-0.3923282
500,2026-05-11 16:10:09.523109,0.8470006,-0.47838157,0.91444355,4.5376596,5.317582,-0.3923282
501,2026-05-11 16:10:09.525869,0.8470006,-0.47838157,0.91444355,4.5376596,5.317582,-0.3923282
502,2026-05-11 16:10:09.528569,0.8470006,-0.47838157,0.91444355,4.8916564,4.889365,-0.33368513
503,2026-05-11 16:10:09.531142,0.8470006,-0.47838157,0.91444355,4.8916564,4.889365,-0.33368513
504,2026-05-11 16:10:09.534219,0.8470006,-0.47838157,0.91444355,4.8916564,4.889365,-0.33368513
505,2026-05-11 16:10:09.537035,0.8470006,-0.47838157,0.91444355,4.8916564,4.889365,-0.33368513
506,2026-05-11 16:10:09.539695,0.8470006,-0.47838157,0.91444355,4.8916564,4.889365,-0.33368513
507,2026-05-11 16:10:09.542281,0.8470006,-0.47838157,0.91444355,4.8916564,4.889365,-0.33368513
508,2026-05-11 16:10:09.545122,0.8470006,-0.47838157,0.91444355,4.8916564,4.889365,-0.33368513
509,2026-05-11 16:10:09.547783,0.8470006,-0.47838157,0.91444355,4.8916564,4.889365,-0.33368513
510,2026-05-11 16:10:09.550766,0.8470006,-0.47838157,0.91444355,4.8916564,4.889365,-0.33368513
511,2026-05-11 16:10:09.553651,0.81943804,-0.4059383,0.78992414,5.3123894,4.2581887,-0.56306505
512,2026-05-11 16:10:09.556393,0.81943804,-0.4059383,0.78992414,5.3123894,4.2581887,-0.56306505
513,2026-05-11 16:10:09.559001,0.81943804,-0.4059383,0.78992414,5.3123894,4.2581887,-0.56306505
514,2026-05-11 16:10:09.561836,0.4631368,-0.3088595,0.16702195,5.2784867,3.6845865,-0.83001316
515,2026-05-11 16:10:09.564615,0.4631368,-0.3088595,0.16702195,3.6370916,4.312403,-0.5871942
516,2026-05-11 16:10:09.567585,0.4631368,-0.3088595,0.16702195,3.6370916,4.312403,-0.5871942
517,2026-05-11 16:10:09.570549,0.4631368,-0.3088595,0.16702195,3.6370916,4.312403,-0.5871942
518,2026-05-11 16:10:09.573328,0.4631368,-0.3088595,0.16702195,3.6370916,4.312403,-0.5871942
519,2026-05-11 16:10:09.575873,0.4631368,-0.3088595,0.16702195,3.6370916,4.312403,-0.5871942
520,2026-05-11 16:10:09.578623,0.4926507,-0.23044027,0.03298973,3.6370916,4.312403,-0.5871942
521,2026-05-11 16:10:09.581412,0.4926507,-0.23044027,0.03298973,3.6370916,4.312403,-0.5871942
522,2026-05-11 16:10:09.584479,0.4926507,-0.23044027,0.03298973,3.6370916,4.312403,-0.5871942
523,2026-05-11 16:10:09.587364,0.4926507,-0.23044027,0.03298973,3.6370916,4.312403,-0.5871942
524,2026-05-11 16:10:09.590022,0.4926507,-0.23044027,0.03298973,3.6370916,4.312403,-0.5871942
525,2026-05-11 16:10:09.592606,0.4926507,-0.23044027,0.03298973,3.6370916,4.312403,-0.5871942
526,2026-05-11 16:10:09.595442,0.4926507,-0.23044027,0.03298973,3.6370916,4.312403,-0.5871942
527,2026-05-11 16:10:09.598128,0.4926507,-0.23044027,0.03298973,3.6370916,4.312403,-0.5871942
528,2026-05-11 16:10:09.601389,0.5653988,-0.17257105,0.012988563,3.3993123,4.3473754,-0.6253733
529,2026-05-11 16:10:09.604121,0.5653988,-0.17257105,0.012988563,3.3993123,4.3473754,-0.6253733
530,2026-05-11 16:10:09.606735,0.5653988,-0.17257105,0.012988563,3.3993123,4.3473754,-0.6253733
531,2026-05-11 16:10:09.609374,0.5653988,-0.17257105,0.012988563,3.3993123,4.3473754,-0.6253733
532,2026-05-11 16:10:09.611921,0.5653988,-0.17257105,0.012988563,3.3993123,4.3473754,-0.6253733
533,2026-05-11 16:10:09.614603,0.5653988,-0.17257105,0.012988563,3.3993123,4.3473754,-0.6253733
534,2026-05-11 16:10:09.617698,0.5653988,-0.17257105,0.012988563,3.3993123,4.3473754,-0.6253733
535,2026-05-11 16:10:09.620462,0.5653988,-0.17257105,0.012988563,3.3993123,4.3473754,-0.6253733
536,2026-05-11 16:10:09.623057,0.5653988,-0.17257105,0.012988563,3.3993123,4.3473754,-0.6253733
537,2026-05-11 16:10:09.625590,0.5653988,-0.17257105,0.012988563,3.3993123,4.3473754,-0.6253733
538,2026-05-11 16:10:09.628294,0.5653988,-0.17257105,0.012988563,3.3993123,4.3473754,-0.6253733
539,2026-05-11 16:10:09.630887,0.5653988,-0.17257105,0.012988563,3.3993123,4.3473754,-0.6253733
540,2026-05-11 16:10:09.634081,0.5653988,-0.17257105,0.012988563,3.3993123,4.3473754,-0.6253733
541,2026-05-11 16:10:09.636827,0.5653988,-0.17257105,0.012988563,3.3993123,4.3473754,-0.6253733
542,2026-05-11 16:10:09.639427,0.5653988,-0.17257105,0.012988563,3.3993123,4.3473754,-0.6253733
543,2026-05-11 16:10:09.642141,0.5653988,-0.17257105,0.012988563,3.3993123,4.3473754,-0.6253733
544,2026-05-11 16:10:09.644956,0.5426536,-0.1615948,-0.06591848,3.2963815,4.2755985,-0.82741696
545,2026-05-11 16:10:09.647615,0.5426536,-0.1615948,-0.06591848,3.2963815,4.2755985,-0.82741696
546,2026-05-11 16:10:09.650643,0.5426536,-0.1615948,-0.06591848,3.2963815,4.2755985,-0.82741696
547,2026-05-11 16:10:09.653330,0.5426536,-0.1615948,-0.06591848,3.2963815,4.2755985,-0.82741696
548,2026-05-11 16:10:09.656068,0.5426536,-0.1615948,-0.06591848,3.2963815,4.2755985,-0.82741696
549,2026-05-11 16:10:09.658834,0.5426536,-0.1615948,-0.06591848,3.2963815,4.2755985,-0.82741696
550,2026-05-11 16:10:09.661470,0.5426536,-0.1615948,-0.06591848,3.2963815,4.2755985,-0.82741696
551,2026-05-11 16:10:09.664300,0.5426536,-0.1615948,-0.06591848,3.2963815,4.2755985,-0.82741696
552,2026-05-11 16:10:09.667376,0.5426536,-0.1615948,-0.06591848,3.2963815,4.2755985,-0.82741696
553,2026-05-11 16:10:09.670185,0.5426536,-0.1615948,-0.06591848,3.2963815,4.2755985,-0.82741696
554,2026-05-11 16:10:09.672780,0.5426536,-0.1615948,-0.06591848,3.2963815,4.2755985,-0.82741696
555,2026-05-11 16:10:09.675449,0.5426536,-0.1615948,-0.06591848,3.2963815,4.2755985,-0.82741696
556,2026-05-11 16:10:09.678004,0.5426536,-0.1615948,-0.06591848,3.2963815,4.2755985,-0.82741696
557,2026-05-11 16:10:09.680738,0.5426536,-0.1615948,-0.06591848,3.2963815,4.2755985,-0.82741696
558,2026-05-11 16:10:09.683705,0.5426536,-0.1615948,-0.06591848,3.4089334,4.044539,-1.0473285
559,2026-05-11 16:10:09.686616,0.28501663,-0.14263028,-0.51923764,3.4900258,3.7472,-1.1688906
560,2026-05-11 16:10:09.689343,0.28501663,-0.14263028,-0.51923764,3.4900258,3.7472,-1.1688906
561,2026-05-11 16:10:09.691927,0.28501663,-0.14263028,-0.51923764,3.4900258,3.7472,-1.1688906
562,2026-05-11 16:10:09.694604,0.28501663,-0.14263028,-0.51923764,3.4900258,3.7472,-1.1688906
563,2026-05-11 16:10:09.697180,0.28501663,-0.14263028,-0.51923764,3.4900258,3.7472,-1.1688906
564,2026-05-11 16:10:09.700215,0.28501663,-0.14263028,-0.51923764,3.4900258,3.7472,-1.1688906
565,2026-05-11 16:10:09.703023,0.28501663,-0.14263028,-0.51923764,3.4900258,3.7472,-1.1688906
566,2026-05-11 16:10:09.705620,0.28501663,-0.14263028,-0.51923764,3.4900258,3.7472,-1.1688906
567,2026-05-11 16:10:09.708237,0.28501663,-0.14263028,-0.51923764,3.4900258,3.7472,-1.1688906
568,2026-05-11 16:10:09.710874,0.28501663,-0.14263028,-0.51923764,3.4900258,3.7472,-1.1688906
569,2026-05-11 16:10:09.713429,0.28501663,-0.14263028,-0.51923764,3.4900258,3.7472,-1.1688906
570,2026-05-11 16:10:09.716623,0.28501663,-0.14263028,-0.51923764,3.4900258,3.7472,-1.1688906
571,2026-05-11 16:10:09.719722,0.069028415,-0.11775078,-0.8126084,3.4900258,3.7472,-1.1688906
572,2026-05-11 16:10:09.722451,0.069028415,-0.11775078,-0.8126084,3.4900258,3.7472,-1.1688906
573,2026-05-11 16:10:09.725079,0.069028415,-0.11775078,-0.8126084,3.4900258,3.7472,-1.1688906
574,2026-05-11 16:10:09.727780,0.069028415,-0.11775078,-0.8126084,3.4900258,3.7472,-1.1688906
575,2026-05-11 16:10:09.730358,0.069028415,-0.11775078,-0.8126084,3.4900258,3.7472,-1.1688906
576,2026-05-11 16:10:09.733244,0.069028415,-0.11775078,-0.8126084,3.4900258,3.7472,-1.1688906
577,2026-05-11 16:10:09.736208,0.069028415,-0.11775078,-0.8126084,3.4900258,3.7472,-1.1688906
578,2026-05-11 16:10:09.738887,0.069028415,-0.11775078,-0.8126084,3.4900258,3.7472,-1.1688906
579,2026-05-11 16:10:09.741592,0.069028415,-0.11775078,-0.8126084,3.4900258,3.7472,-1.1688906
580,2026-05-11 16:10:09.744350,0.069028415,-0.11775078,-0.8126084,3.4900258,3.7472,-1.1688906
581,2026-05-11 16:10:09.746954,0.069028415,-0.11775078,-0.8126084,3.4900258,3.7472,-1.1688906
582,2026-05-11 16:10:09.750095,0.069028415,-0.11775078,-0.8126084,3.4970508,3.233157,-1.2093605
583,2026-05-11 16:10:09.753115,0.069028415,-0.11775078,-0.8126084,3.4970508,3.233157,-1.2093605
584,2026-05-11 16:10:09.755872,0.069028415,-0.11775078,-0.8126084,3.4970508,3.233157,-1.2093605
585,2026-05-11 16:10:09.758704,0.069028415,-0.11775078,-0.8126084,3.4970508,3.233157,-1.2093605
586,2026-05-11 16:10:09.761422,0.069028415,-0.11775078,-0.8126084,3.474296,2.6325238,-1.181108
587,2026-05-11 16:10:09.764167,0.069028415,-0.11775078,-0.8126084,3.474296,2.6325238,-1.181108
588,2026-05-11 16:10:09.767370,0.069028415,-0.11775078,-0.8126084,3.474296,2.6325238,-1.181108
589,2026-05-11 16:10:09.770088,0.069028415,-0.11775078,-0.8126084,3.474296,2.6325238,-1.181108
590,2026-05-11 16:10:09.772728,0.069028415,-0.11775078,-0.8126084,3.474296,2.6325238,-1.181108
591,2026-05-11 16:10:09.775315,0.069028415,-0.11775078,-0.8126084,3.474296,2.6325238,-1.181108
592,2026-05-11 16:10:09.777862,0.069028415,-0.11775078,-0.8126084,3.474296,2.6325238,-1.181108
593,2026-05-11 16:10:09.780547,0.069028415,-0.11775078,-0.8126084,3.474296,2.6325238,-1.181108
594,2026-05-11 16:10:09.783628,-0.086712375,-0.07561417,-1.0073758,3.474296,2.6325238,-1.181108
595,2026-05-11 16:10:09.786588,-0.086712375,-0.07561417,-1.0073758,3.474296,2.6325238,-1.181108
596,2026-05-11 16:10:09.789188,-0.086712375,-0.07561417,-1.0073758,3.474296,2.6325238,-1.181108
597,2026-05-11 16:10:09.791780,-0.086712375,-0.07561417,-1.0073758,3.474296,2.6325238,-1.181108
598,2026-05-11 16:10:09.794543,-0.086712375,-0.07561417,-1.0073758,3.474296,2.6325238,-1.181108
599,2026-05-11 16:10:09.797136,-0.086712375,-0.07561417,-1.0073758,3.474296,2.6325238,-1.181108
600,2026-05-11 16:10:09.800186,-0.086712375,-0.07561417,-1.0073758,3.474296,2.6325238,-1.181108
601,2026-05-11 16:10:09.803009,-0.086712375,-0.07561417,-1.0073758,3.474296,2.6325238,-1.181108
602,2026-05-11 16:10:09.805688,-0.086712375,-0.07561417,-1.0073758,3.474296,2.6325238,-1.181108
603,2026-05-11 16:10:09.808411,-0.086712375,-0.07561417,-1.0073758,3.474296,2.6325238,-1.181108
604,2026-05-11 16:10:09.811029,-0.086712375,-0.07561417,-1.0073758,3.474296,2.6325238,-1.181108
605,2026-05-11 16:10:09.813794,-0.086712375,-0.07561417,-1.0073758,3.474296,2.6325238,-1.181108
606,2026-05-11 16:10:09.817073,-0.086712375,-0.07561417,-1.0073758,3.474296,2.6325238,-1.181108
607,2026-05-11 16:10:09.819882,-0.086712375,-0.07561417,-1.0073758,3.474296,2.6325238,-1.181108
608,2026-05-11 16:10:09.822565,-0.15927759,-0.076711796,-1.2769037,3.474296,2.6325238,-1.181108
609,2026-05-11 16:10:09.825386,-0.15927759,-0.076711796,-1.2769037,3.474296,2.6325238,-1.181108
610,2026-05-11 16:10:09.828126,-0.15927759,-0.076711796,-1.2769037,3.3886223,1.8629863,-1.1016954
611,2026-05-11 16:10:09.830817,-0.15927759,-0.076711796,-1.2769037,3.3886223,1.8629863,-1.1016954
612,2026-05-11 16:10:09.833962,-0.15927759,-0.076711796,-1.2769037,3.3886223,1.8629863,-1.1016954
613,2026-05-11 16:10:09.836746,-0.15927759,-0.076711796,-1.2769037,3.3886223,1.8629863,-1.1016954
614,2026-05-11 16:10:09.839450,-0.15927759,-0.076711796,-1.2769037,3.3886223,1.8629863,-1.1016954
615,2026-05-11 16:10:09.842200,-0.15927759,-0.076711796,-1.2769037,3.3886223,1.8629863,-1.1016954
616,2026-05-11 16:10:09.844837,-0.15927759,-0.076711796,-1.2769037,3.3886223,1.8629863,-1.1016954
617,2026-05-11 16:10:09.847556,-0.1934869,-0.09415183,-1.4596584,2.5169175,1.1971432,-0.9111055
618,2026-05-11 16:10:09.850869,-0.27641857,-0.11720196,-1.8894395,2.5169175,1.1971432,-0.9111055
619,2026-05-11 16:10:09.853591,-0.27641857,-0.11720196,-1.8894395,2.5169175,1.1971432,-0.9111055
620,2026-05-11 16:10:09.856188,-0.27641857,-0.11720196,-1.8894395,2.5169175,1.1971432,-0.9111055
621,2026-05-11 16:10:09.858983,-0.27641857,-0.11720196,-1.8894395,2.5169175,1.1971432,-0.9111055
622,2026-05-11 16:10:09.861601,-0.27641857,-0.11720196,-1.8894395,2.5169175,1.1971432,-0.9111055
623,2026-05-11 16:10:09.864421,-0.27641857,-0.11720196,-1.8894395,2.5169175,1.1971432,-0.9111055
624,2026-05-11 16:10:09.867477,-0.35587442,-0.1413497,-2.148845,1.7394388,1.103528,-0.8052731
625,2026-05-11 16:10:09.870279,-0.35587442,-0.1413497,-2.148845,1.7394388,1.103528,-0.8052731
626,2026-05-11 16:10:09.872872,-0.35587442,-0.1413497,-2.148845,1.7394388,1.103528,-0.8052731
627,2026-05-11 16:10:09.875716,-0.35587442,-0.1413497,-2.148845,1.7394388,1.103528,-0.8052731
628,2026-05-11 16:10:09.878452,-0.35587442,-0.1413497,-2.148845,1.7394388,1.103528,-0.8052731
629,2026-05-11 16:10:09.881066,-0.35587442,-0.1413497,-2.148845,1.7394388,1.103528,-0.8052731
630,2026-05-11 16:10:09.884130,-0.35587442,-0.1413497,-2.148845,1.7394388,1.103528,-0.8052731
631,2026-05-11 16:10:09.886838,-0.35587442,-0.1413497,-2.148845,1.7394388,1.103528,-0.8052731
632,2026-05-11 16:10:09.889428,-0.35587442,-0.1413497,-2.148845,1.7394388,1.103528,-0.8052731
633,2026-05-11 16:10:09.892264,-0.35587442,-0.1413497,-2.148845,1.7394388,1.103528,-0.8052731
634,2026-05-11 16:10:09.895154,-0.35587442,-0.1413497,-2.148845,1.0823005,0.97051215,-0.68310004
635,2026-05-11 16:10:09.897915,-0.7739476,-0.23135497,-2.3966033,-0.19394971,0.15286903,-0.2012801
636,2026-05-11 16:10:09.901001,-0.7739476,-0.23135497,-2.3966033,-0.19394971,0.15286903,-0.2012801
637,2026-05-11 16:10:09.903792,-0.7739476,-0.23135497,-2.3966033,-0.19394971,0.15286903,-0.2012801
638,2026-05-11 16:10:09.906526,-0.7739476,-0.23135497,-2.3966033,-0.19394971,0.15286903,-0.2012801
639,2026-05-11 16:10:09.909255,-0.7739476,-0.23135497,-2.3966033,-0.19394971,0.15286903,-0.2012801
640,2026-05-11 16:10:09.912016,-0.7739476,-0.23135497,-2.3966033,-0.19394971,0.15286903,-0.2012801
641,2026-05-11 16:10:09.914724,-0.69510156,-0.22226907,-2.095427,-1.1725558,-1.2145529,0.31978795
642,2026-05-11 16:10:09.917854,-0.69510156,-0.22226907,-2.095427,-1.1725558,-1.2145529,0.31978795
643,2026-05-11 16:10:09.920676,-0.69510156,-0.22226907,-2.095427,-1.1725558,-1.2145529,0.31978795
644,2026-05-11 16:10:09.923420,-0.69510156,-0.22226907,-2.095427,-1.1725558,-1.2145529,0.31978795
645,2026-05-11 16:10:09.926084,-0.69510156,-0.22226907,-2.095427,-1.1725558,-1.2145529,0.31978795
646,2026-05-11 16:10:09.928837,-0.6826008,-0.17842504,-1.811874,-1.1725558,-1.2145529,0.31978795
647,2026-05-11 16:10:09.931530,-0.6826008,-0.17842504,-1.811874,-1.1725558,-1.2145529,0.31978795
648,2026-05-11 16:10:09.934507,-0.6826008,-0.17842504,-1.811874,-1.1725558,-1.2145529,0.31978795
649,2026-05-11 16:10:09.937373,-0.6826008,-0.17842504,-1.811874,-1.1725558,-1.2145529,0.31978795
650,2026-05-11 16:10:09.939949,-0.6826008,-0.17842504,-1.811874,-1.1725558,-1.2145529,0.31978795
651,2026-05-11 16:10:09.942574,-0.44179407,-0.17574196,-1.4842329,-1.5202909,-1.9297233,0.56505036
652,2026-05-11 16:10:09.945154,-0.44179407,-0.17574196,-1.4842329,-1.5202909,-1.9297233,0.56505036
653,2026-05-11 16:10:09.947691,-0.44179407,-0.17574196,-1.4842329,-1.5202909,-1.9297233,0.56505036
654,2026-05-11 16:10:09.950849,-0.44179407,-0.17574196,-1.4842329,-1.5202909,-1.9297233,0.56505036
655,2026-05-11 16:10:09.953563,-0.44179407,-0.17574196,-1.4842329,-1.5202909,-1.9297233,0.56505036
656,2026-05-11 16:10:09.956406,-0.44179407,-0.17574196,-1.4842329,-1.5202909,-1.9297233,0.56505036
657,2026-05-11 16:10:09.959034,-0.44179407,-0.17574196,-1.4842329,-1.5202909,-1.9297233,0.56505036
658,2026-05-11 16:10:09.961616,-0.44179407,-0.17574196,-1.4842329,-1.5202909,-1.9297233,0.56505036
659,2026-05-11 16:10:09.964482,-0.44179407,-0.17574196,-1.4842329,-1.5202909,-1.9297233,0.56505036
660,2026-05-11 16:10:09.967411,-0.44179407,-0.17574196,-1.4842329,-1.5202909,-1.9297233,0.56505036
661,2026-05-11 16:10:09.970192,-0.44179407,-0.17574196,-1.4842329,-1.5202909,-1.9297233,0.56505036
662,2026-05-11 16:10:09.972749,-0.44179407,-0.17574196,-1.4842329,-1.5202909,-1.9297233,0.56505036
663,2026-05-11 16:10:09.975297,-0.44179407,-0.17574196,-1.4842329,-1.5202909,-1.9297233,0.56505036
664,2026-05-11 16:10:09.977875,-0.44179407,-0.17574196,-1.4842329,-1.5202909,-1.9297233,0.56505036
665,2026-05-11 16:10:09.980433,-0.44179407,-0.17574196,-1.4842329,-1.5202909,-1.9297233,0.56505036
666,2026-05-11 16:10:09.983404,-0.44179407,-0.17574196,-1.4842329,-1.5202909,-1.9297233,0.56505036
667,2026-05-11 16:10:09.986214,-0.44179407,-0.17574196,-1.4842329,-1.5202909,-1.9297233,0.56505036
668,2026-05-11 16:10:09.989005,-0.44179407,-0.17574196,-1.4842329,-1.5202909,-1.9297233,0.56505036
669,2026-05-11 16:10:09.991695,-0.44179407,-0.17574196,-1.4842329,-1.5202909,-1.9297233,0.56505036
670,2026-05-11 16:10:09.994368,-0.44179407,-0.17574196,-1.4842329,-1.5202909,-1.9297233,0.56505036
671,2026-05-11 16:10:09.996933,-0.44179407,-0.17574196,-1.4842329,-1.5202909,-1.9297233,0.56505036
672,2026-05-11 16:10:09.999956,-0.44179407,-0.17574196,-1.4842329,-1.5202909,-1.9297233,0.56505036
673,2026-05-11 16:10:10.002686,-0.44179407,-0.17574196,-1.4842329,-1.5202909,-1.9297233,0.56505036
674,2026-05-11 16:10:10.005265,-0.44179407,-0.17574196,-1.4842329,-1.5202909,-1.9297233,0.56505036
675,2026-05-11 16:10:10.008094,-0.44179407,-0.17574196,-1.4842329,-1.5202909,-1.9297233,0.56505036
676,2026-05-11 16:10:10.010727,-0.44179407,-0.17574196,-1.4842329,-1.5202909,-1.9297233,0.56505036
677,2026-05-11 16:10:10.013330,-0.44179407,-0.17574196,-1.4842329,-1.5202909,-1.9297233,0.56505036
678,2026-05-11 16:10:10.016344,-0.44179407,-0.17574196,-1.4842329,-1.5202909,-1.9297233,0.56505036
679,2026-05-11 16:10:10.019039,-0.44179407,-0.17574196,-1.4842329,-1.5202909,-1.9297233,0.56505036
680,2026-05-11 16:10:10.021649,-0.44179407,-0.17574196,-1.4842329,-1.5202909,-1.9297233,0.56505036
681,2026-05-11 16:10:10.024405,-0.44179407,-0.17574196,-1.4842329,-1.5202909,-1.9297233,0.56505036
682,2026-05-11 16:10:10.026984,-0.44179407,-0.17574196,-1.4842329,-1.5202909,-1.9297233,0.56505036
683,2026-05-11 16:10:10.029593,-0.44179407,-0.17574196,-1.4842329,-1.5202909,-1.9297233,0.56505036
684,2026-05-11 16:10:10.032147,-0.44179407,-0.17574196,-1.4842329,-1.5202909,-1.9297233,0.56505036
685,2026-05-11 16:10:10.035084,-0.44179407,-0.17574196,-1.4842329,-1.5202909,-1.9297233,0.56505036
686,2026-05-11 16:10:10.037788,-0.44179407,-0.17574196,-1.4842329,-1.5202909,-1.9297233,0.56505036
687,2026-05-11 16:10:10.040382,-0.44179407,-0.17574196,-1.4842329,-1.5202909,-1.9297233,0.56505036
688,2026-05-11 16:10:10.042950,-0.44179407,-0.17574196,-1.4842329,-1.5202909,-1.9297233,0.56505036
689,2026-05-11 16:10:10.045629,-0.44179407,-0.17574196,-1.4842329,-1.5202909,-1.9297233,0.56505036
690,2026-05-11 16:10:10.048214,-0.44179407,-0.17574196,-1.4842329,-1.5202909,-1.9297233,0.56505036
691,2026-05-11 16:10:10.051296,-0.44179407,-0.17574196,-1.4842329,-1.5202909,-1.9297233,0.56505036
692,2026-05-11 16:10:10.054091,-0.44179407,-0.17574196,-1.4842329,-1.5202909,-1.9297233,0.56505036
693,2026-05-11 16:10:10.056702,-0.44179407,-0.17574196,-1.4842329,-1.5202909,-1.9297233,0.56505036
694,2026-05-11 16:10:10.059538,-0.44179407,-0.17574196,-1.4842329,-1.5202909,-1.9297233,0.56505036
695,2026-05-11 16:10:10.062245,-0.44179407,-0.17574196,-1.4842329,-1.5202909,-1.9297233,0.56505036
696,2026-05-11 16:10:10.064951,-0.44179407,-0.17574196,-1.4842329,-1.5202909,-1.9297233,0.56505036
697,2026-05-11 16:10:10.067947,-0.44179407,-0.17574196,-1.4842329,-1.5202909,-1.9297233,0.56505036
698,2026-05-11 16:10:10.070820,-0.44179407,-0.17574196,-1.4842329,-1.5202909,-1.9297233,0.56505036
699,2026-05-11 16:10:10.073596,-0.23025733,-0.1554359,-1.1634825,-2.0732768,-3.1435125,0.9108001
700,2026-05-11 16:10:10.076200,-0.23025733,-0.1554359,-1.1634825,-2.0732768,-3.1435125,0.9108001
701,2026-05-11 16:10:10.078969,-0.23025733,-0.1554359,-1.1634825,-2.0732768,-3.1435125,0.9108001
702,2026-05-11 16:10:10.081640,-0.23025733,-0.1554359,-1.1634825,-2.0732768,-3.1435125,0.9108001
703,2026-05-11 16:10:10.084923,-0.23025733,-0.1554359,-1.1634825,-2.0732768,-3.1435125,0.9108001
704,2026-05-11 16:10:10.087643,-0.23025733,-0.1554359,-1.1634825,-2.0732768,-3.1435125,0.9108001
705,2026-05-11 16:10:10.090296,-0.23025733,-0.1554359,-1.1634825,-2.0732768,-3.1435125,0.9108001
706,2026-05-11 16:10:10.092858,-0.23025733,-0.1554359,-1.1634825,-2.0732768,-3.1435125,0.9108001
707,2026-05-11 16:10:10.095642,-0.23025733,-0.1554359,-1.1634825,-2.0732768,-3.1435125,0.9108001
708,2026-05-11 16:10:10.098246,-0.23025733,-0.1554359,-1.1634825,-2.0732768,-3.1435125,0.9108001
709,2026-05-11 16:10:10.101178,-0.23025733,-0.1554359,-1.1634825,-2.0732768,-3.1435125,0.9108001
710,2026-05-11 16:10:10.103931,-0.23025733,-0.1554359,-1.1634825,-2.0732768,-3.1435125,0.9108001
711,2026-05-11 16:10:10.106501,-0.23025733,-0.1554359,-1.1634825,-2.0732768,-3.1435125,0.9108001
712,2026-05-11 16:10:10.109188,-0.23025733,-0.1554359,-1.1634825,-2.0732768,-3.1435125,0.9108001
713,2026-05-11 16:10:10.111896,-0.23025733,-0.1554359,-1.1634825,-2.0732768,-3.1435125,0.9108001
714,2026-05-11 16:10:10.114460,-0.23025733,-0.1554359,-1.1634825,-2.0732768,-3.1435125,0.9108001
715,2026-05-11 16:10:10.117407,-0.23025733,-0.1554359,-1.1634825,-2.0732768,-3.1435125,0.9108001
716,2026-05-11 16:10:10.120236,-0.23025733,-0.1554359,-1.1634825,-2.0732768,-3.1435125,0.9108001
717,2026-05-11 16:10:10.122829,-0.23025733,-0.1554359,-1.1634825,-2.0732768,-3.1435125,0.9108001
718,2026-05-11 16:10:10.125481,-0.23025733,-0.1554359,-1.1634825,-2.0732768,-3.1435125,0.9108001
719,2026-05-11 16:10:10.128333,-0.23025733,-0.1554359,-1.1634825,-2.0732768,-3.1435125,0.9108001
720,2026-05-11 16:10:10.130984,-0.18818171,-0.15653352,-0.986582,-2.149482,-3.3179145,0.8958339
721,2026-05-11 16:10:10.134149,-0.18818171,-0.15653352,-0.986582,-2.149482,-3.3179145,0.8958339
722,2026-05-11 16:10:10.136936,-0.18818171,-0.15653352,-0.986582,-2.149482,-3.3179145,0.8958339
723,2026-05-11 16:10:10.139520,-0.18818171,-0.15653352,-0.986582,-2.149482,-3.3179145,0.8958339
724,2026-05-11 16:10:10.142378,-0.18818171,-0.15653352,-0.986582,-2.149482,-3.3179145,0.8958339
725,2026-05-11 16:10:10.144921,-0.18818171,-0.15653352,-0.986582,-2.149482,-3.3179145,0.8958339
726,2026-05-11 16:10:10.147446,-0.18818171,-0.15653352,-0.986582,-2.149482,-3.3179145,0.8958339
727,2026-05-11 16:10:10.150500,-0.18818171,-0.15653352,-0.986582,-2.149482,-3.3179145,0.8958339
728,2026-05-11 16:10:10.153382,-0.18818171,-0.15653352,-0.986582,-2.149482,-3.3179145,0.8958339
729,2026-05-11 16:10:10.156045,-0.18818171,-0.15653352,-0.986582,-2.149482,-3.3179145,0.8958339
730,2026-05-11 16:10:10.158588,-0.18818171,-0.15653352,-0.986582,-2.149482,-3.3179145,0.8958339
731,2026-05-11 16:10:10.161256,-0.18818171,-0.15653352,-0.986582,-2.149482,-3.3179145,0.8958339
732,2026-05-11 16:10:10.163850,-0.18818171,-0.15653352,-0.986582,-2.149482,-3.3179145,0.8958339
733,2026-05-11 16:10:10.166932,-0.1554359,-0.1733028,-0.8038884,-2.149482,-3.3179145,0.8958339
734,2026-05-11 16:10:10.169684,-0.1554359,-0.1733028,-0.8038884,-2.149482,-3.3179145,0.8958339
735,2026-05-11 16:10:10.172180,-0.1554359,-0.1733028,-0.8038884,-2.149482,-3.3179145,0.8958339
736,2026-05-11 16:10:10.175000,-0.1554359,-0.1733028,-0.8038884,-2.149482,-3.3179145,0.8958339
737,2026-05-11 16:10:10.177688,-0.1554359,-0.1733028,-0.8038884,-2.3116667,-3.5263724,0.9405798
738,2026-05-11 16:10:10.180295,-0.1554359,-0.1733028,-0.8038884,-2.3116667,-3.5263724,0.9405798
739,2026-05-11 16:10:10.183476,-0.1554359,-0.1733028,-0.8038884,-2.3116667,-3.5263724,0.9405798
740,2026-05-11 16:10:10.186297,-0.1554359,-0.1733028,-0.8038884,-2.3116667,-3.5263724,0.9405798
741,2026-05-11 16:10:10.188993,-0.1554359,-0.1733028,-0.8038884,-2.3116667,-3.5263724,0.9405798
742,2026-05-11 16:10:10.191708,-0.1554359,-0.1733028,-0.8038884,-2.3116667,-3.5263724,0.9405798
743,2026-05-11 16:10:10.194585,-0.1554359,-0.1733028,-0.8038884,-2.3116667,-3.5263724,0.9405798
744,2026-05-11 16:10:10.197335,-0.1554359,-0.1733028,-0.8038884,-2.3116667,-3.5263724,0.9405798
745,2026-05-11 16:10:10.200359,-0.1554359,-0.1733028,-0.8038884,-2.3116667,-3.5263724,0.9405798
746,2026-05-11 16:10:10.203245,-0.1554359,-0.1733028,-0.8038884,-2.3116667,-3.5263724,0.9405798
747,2026-05-11 16:10:10.205869,-0.1554359,-0.1733028,-0.8038884,-2.3116667,-3.5263724,0.9405798
748,2026-05-11 16:10:10.208477,-0.1554359,-0.1733028,-0.8038884,-2.3116667,-3.5263724,0.9405798
749,2026-05-11 16:10:10.211399,-0.1554359,-0.1733028,-0.8038884,-2.3116667,-3.5263724,0.9405798
750,2026-05-11 16:10:10.214050,-0.1484233,-0.22409843,-0.63802505,-2.3116667,-3.5263724,0.9405798
751,2026-05-11 16:10:10.217049,-0.1484233,-0.22409843,-0.63802505,-2.3116667,-3.5263724,0.9405798
752,2026-05-11 16:10:10.219791,-0.1484233,-0.22409843,-0.63802505,-2.3116667,-3.5263724,0.9405798
753,2026-05-11 16:10:10.222530,-0.1484233,-0.22409843,-0.63802505,-2.3116667,-3.5263724,0.9405798
754,2026-05-11 16:10:10.225172,-0.1484233,-0.22409843,-0.63802505,-2.3116667,-3.5263724,0.9405798
755,2026-05-11 16:10:10.227812,-0.1484233,-0.22409843,-0.63802505,-2.3116667,-3.5263724,0.9405798
756,2026-05-11 16:10:10.230528,-0.19214535,-0.26916206,-0.5214329,-2.43216,-3.607312,1.0132728
757,2026-05-11 16:10:10.233533,-0.19214535,-0.26916206,-0.5214329,-2.43216,-3.607312,1.0132728
758,2026-05-11 16:10:10.236437,-0.19214535,-0.26916206,-0.5214329,-2.43216,-3.607312,1.0132728
759,2026-05-11 16:10:10.239024,-0.19214535,-0.26916206,-0.5214329,-2.43216,-3.607312,1.0132728
760,2026-05-11 16:10:10.241828,-0.19214535,-0.26916206,-0.5214329,-2.43216,-3.607312,1.0132728
761,2026-05-11 16:10:10.244455,-0.19214535,-0.26916206,-0.5214329,-2.43216,-3.607312,1.0132728
762,2026-05-11 16:10:10.247025,-0.19214535,-0.26916206,-0.5214329,-2.43216,-3.607312,1.0132728
763,2026-05-11 16:10:10.249873,-0.19214535,-0.26916206,-0.5214329,-2.43216,-3.607312,1.0132728
764,2026-05-11 16:10:10.252692,-0.19214535,-0.26916206,-0.5214329,-2.43216,-3.607312,1.0132728
765,2026-05-11 16:10:10.255285,-0.19214535,-0.26916206,-0.5214329,-2.43216,-3.607312,1.0132728
766,2026-05-11 16:10:10.258115,-0.19214535,-0.26916206,-0.5214329,-2.43216,-3.607312,1.0132728
767,2026-05-11 16:10:10.260873,-0.17720546,-0.3148964,-0.43191543,-2.6888762,-3.8655553,1.4729488
768,2026-05-11 16:10:10.263527,-0.17720546,-0.3148964,-0.43191543,-2.6888762,-3.8655553,1.4729488
769,2026-05-11 16:10:10.266481,-0.17720546,-0.3148964,-0.43191543,-2.6888762,-3.8655553,1.4729488
770,2026-05-11 16:10:10.269726,-0.17720546,-0.3148964,-0.43191543,-2.6888762,-3.8655553,1.4729488
771,2026-05-11 16:10:10.272545,-0.17720546,-0.3148964,-0.43191543,-2.6888762,-3.8655553,1.4729488
772,2026-05-11 16:10:10.275228,-0.17720546,-0.3148964,-0.43191543,-2.6888762,-3.8655553,1.4729488
773,2026-05-11 16:10:10.277842,-0.17720546,-0.3148964,-0.43191543,-2.6888762,-3.8655553,1.4729488
774,2026-05-11 16:10:10.280543,-0.17720546,-0.3148964,-0.43191543,-2.6888762,-3.8655553,1.4729488
775,2026-05-11 16:10:10.283787,-0.17720546,-0.3148964,-0.43191543,-2.6888762,-3.8655553,1.4729488
776,2026-05-11 16:10:10.286584,-0.17720546,-0.3148964,-0.43191543,-2.6888762,-3.8655553,1.4729488
777,2026-05-11 16:10:10.289319,-0.11775078,-0.32068944,-0.38057098,-2.7714956,-4.0552287,1.7435621
778,2026-05-11 16:10:10.296579,-0.11775078,-0.32068944,-0.38057098,-2.7714956,-4.0552287,1.7435621
779,2026-05-11 16:10:10.316811,-0.11775078,-0.32068944,-0.38057098,-2.7714956,-4.0552287,1.7435621
780,2026-05-11 16:10:10.320524,-0.11775078,-0.32068944,-0.38057098,-2.7714956,-4.0552287,1.7435621
781,2026-05-11 16:10:10.328540,-0.11775078,-0.32068944,-0.38057098,-2.7714956,-4.0552287,1.7435621
782,2026-05-11 16:10:10.331328,-0.11775078,-0.32068944,-0.38057098,-2.7714956,-4.0552287,1.7435621
783,2026-05-11 16:10:10.334521,-0.11775078,-0.32068944,-0.38057098,-2.7714956,-4.0552287,1.7435621
784,2026-05-11 16:10:10.337225,-0.11775078,-0.32068944,-0.38057098,-2.7714956,-4.0552287,1.7435621
785,2026-05-11 16:10:10.339931,-0.11775078,-0.32068944,-0.38057098,-2.7714956,-4.0552287,1.7435621
786,2026-05-11 16:10:10.342569,-0.11775078,-0.32068944,-0.38057098,-2.7714956,-4.0552287,1.7435621
787,2026-05-11 16:10:10.345222,-0.11775078,-0.32068944,-0.38057098,-2.7714956,-4.0552287,1.7435621
788,2026-05-11 16:10:10.347961,-0.11775078,-0.32068944,-0.38057098,-2.7714956,-4.0552287,1.7435621
789,2026-05-11 16:10:10.350928,-0.11775078,-0.32068944,-0.38057098,-2.7714956,-4.0552287,1.7435621
790,2026-05-11 16:10:10.353646,-0.11775078,-0.32068944,-0.38057098,-2.8127291,-4.4211373,2.0355556
791,2026-05-11 16:10:10.356431,-0.11775078,-0.32068944,-0.38057098,-2.8127291,-4.4211373,2.0355556
792,2026-05-11 16:10:10.359200,-0.11775078,-0.32068944,-0.38057098,-2.8127291,-4.4211373,2.0355556
793,2026-05-11 16:10:10.361797,-0.11775078,-0.32068944,-0.38057098,-2.8127291,-4.4211373,2.0355556
794,2026-05-11 16:10:10.364502,-0.11775078,-0.32068944,-0.38057098,-2.8127291,-4.4211373,2.0355556
795,2026-05-11 16:10:10.367464,-0.11775078,-0.32068944,-0.38057098,-2.8127291,-4.4211373,2.0355556
796,2026-05-11 16:10:10.370257,-0.11775078,-0.32068944,-0.38057098,-2.8127291,-4.4211373,2.0355556
797,2026-05-11 16:10:10.372820,-0.11775078,-0.32068944,-0.38057098,-2.8127291,-4.4211373,2.0355556
798,2026-05-11 16:10:10.375399,-0.11775078,-0.32068944,-0.38057098,-2.8127291,-4.4211373,2.0355556
799,2026-05-11 16:10:10.378137,-0.11775078,-0.32068944,-0.38057098,-2.8127291,-4.4211373,2.0355556
800,2026-05-11 16:10:10.380694,-0.11775078,-0.32068944,-0.38057098,-2.8127291,-4.4211373,2.0355556
801,2026-05-11 16:10:10.384071,0.19452354,-0.2625763,-0.17568098,-2.8127291,-4.4211373,2.0355556
802,2026-05-11 16:10:10.386962,0.19452354,-0.2625763,-0.17568098,-2.8127291,-4.4211373,2.0355556
803,2026-05-11 16:10:10.389604,0.19452354,-0.2625763,-0.17568098,-2.8127291,-4.4211373,2.0355556
804,2026-05-11 16:10:10.392207,0.19452354,-0.2625763,-0.17568098,-2.8127291,-4.4211373,2.0355556
805,2026-05-11 16:10:10.394985,0.19452354,-0.2625763,-0.17568098,-2.8127291,-4.4211373,2.0355556
806,2026-05-11 16:10:10.397578,0.19452354,-0.2625763,-0.17568098,-2.8127291,-4.4211373,2.0355556
807,2026-05-11 16:10:10.400443,0.19452354,-0.2625763,-0.17568098,-2.8127291,-4.4211373,2.0355556
808,2026-05-11 16:10:10.403148,0.19452354,-0.2625763,-0.17568098,-2.8127291,-4.4211373,2.0355556
809,2026-05-11 16:10:10.405901,0.19452354,-0.2625763,-0.17568098,-2.8127291,-4.4211373,2.0355556
810,2026-05-11 16:10:10.408487,0.19452354,-0.2625763,-0.17568098,-2.8127291,-4.4211373,2.0355556
811,2026-05-11 16:10:10.411067,0.19452354,-0.2625763,-0.17568098,-2.8127291,-4.4211373,2.0355556
812,2026-05-11 16:10:10.413768,0.19452354,-0.2625763,-0.17568098,-2.8127291,-4.4211373,2.0355556
813,2026-05-11 16:10:10.416743,0.19452354,-0.2625763,-0.17568098,-2.8127291,-4.4211373,2.0355556
814,2026-05-11 16:10:10.419681,0.19452354,-0.2625763,-0.17568098,-2.8127291,-4.4211373,2.0355556
815,2026-05-11 16:10:10.422439,0.19452354,-0.2625763,-0.17568098,-2.8127291,-4.4211373,2.0355556
816,2026-05-11 16:10:10.425064,0.19452354,-0.2625763,-0.17568098,-2.8127291,-4.4211373,2.0355556
817,2026-05-11 16:10:10.428016,0.19452354,-0.2625763,-0.17568098,-2.8127291,-4.4211373,2.0355556
818,2026-05-11 16:10:10.430637,0.19452354,-0.2625763,-0.17568098,-2.8127291,-4.4211373,2.0355556
819,2026-05-11 16:10:10.433861,0.19452354,-0.2625763,-0.17568098,-2.8127291,-4.4211373,2.0355556
820,2026-05-11 16:10:10.436724,0.19452354,-0.2625763,-0.17568098,-2.8127291,-4.4211373,2.0355556
821,2026-05-11 16:10:10.439305,0.19452354,-0.2625763,-0.17568098,-2.8127291,-4.4211373,2.0355556
822,2026-05-11 16:10:10.442125,0.19452354,-0.2625763,-0.17568098,-2.8127291,-4.4211373,2.0355556
823,2026-05-11 16:10:10.444917,0.19452354,-0.2625763,-0.17568098,-2.8127291,-4.4211373,2.0355556
824,2026-05-11 16:10:10.447504,0.19452354,-0.2625763,-0.17568098,-2.8127291,-4.4211373,2.0355556
825,2026-05-11 16:10:10.450431,0.19452354,-0.2625763,-0.17568098,-2.8127291,-4.4211373,2.0355556
826,2026-05-11 16:10:10.453201,0.19452354,-0.2625763,-0.17568098,-2.8127291,-4.4211373,2.0355556
827,2026-05-11 16:10:10.455758,0.19452354,-0.2625763,-0.17568098,-2.8127291,-4.4211373,2.0355556
828,2026-05-11 16:10:10.458481,0.19452354,-0.2625763,-0.17568098,-2.8127291,-4.4211373,2.0355556
829,2026-05-11 16:10:10.461261,0.19452354,-0.2625763,-0.17568098,-2.8127291,-4.4211373,2.0355556
830,2026-05-11 16:10:10.463874,0.19452354,-0.2625763,-0.17568098,-2.8127291,-4.4211373,2.0355556
831,2026-05-11 16:10:10.467034,0.49710217,-0.17586392,0.20940247,-2.4526238,-4.82553,1.8073975
832,2026-05-11 16:10:10.469907,0.49710217,-0.17586392,0.20940247,-2.4526238,-4.82553,1.8073975
833,2026-05-11 16:10:10.472572,0.49710217,-0.17586392,0.20940247,-2.4526238,-4.82553,1.8073975
834,2026-05-11 16:10:10.475207,0.46283188,-0.16805859,0.26233238,-2.4526238,-4.82553,1.8073975
835,2026-05-11 16:10:10.477923,0.46283188,-0.16805859,0.26233238,-2.4526238,-4.82553,1.8073975
836,2026-05-11 16:10:10.480486,0.46283188,-0.16805859,0.26233238,-2.4526238,-4.82553,1.8073975
837,2026-05-11 16:10:10.483407,0.46283188,-0.16805859,0.26233238,-2.4526238,-4.82553,1.8073975
838,2026-05-11 16:10:10.486361,0.46283188,-0.16805859,0.26233238,-2.4526238,-4.82553,1.8073975
839,2026-05-11 16:10:10.489153,0.46283188,-0.16805859,0.26233238,-2.4526238,-4.82553,1.8073975
840,2026-05-11 16:10:10.491783,0.46283188,-0.16805859,0.26233238,-2.4526238,-4.82553,1.8073975
841,2026-05-11 16:10:10.494437,0.46283188,-0.16805859,0.26233238,-2.4526238,-4.82553,1.8073975
842,2026-05-11 16:10:10.497223,0.46283188,-0.16805859,0.26233238,-2.4526238,-4.82553,1.8073975
843,2026-05-11 16:10:10.500389,0.46283188,-0.16805859,0.26233238,-2.4526238,-4.82553,1.8073975
844,2026-05-11 16:10:10.503262,0.46283188,-0.16805859,0.26233238,-2.35626,-4.8090367,1.81091
845,2026-05-11 16:10:10.505866,0.46283188,-0.16805859,0.26233238,-2.35626,-4.8090367,1.81091
846,2026-05-11 16:10:10.508608,0.46283188,-0.16805859,0.26233238,-2.35626,-4.8090367,1.81091
847,2026-05-11 16:10:10.511349,0.5139934,-0.14836231,0.30398116,-2.3116667,-4.76536,1.9162843
848,2026-05-11 16:10:10.513958,0.5139934,-0.14836231,0.30398116,-2.3116667,-4.76536,1.9162843
849,2026-05-11 16:10:10.517124,0.5139934,-0.14836231,0.30398116,-2.3116667,-4.76536,1.9162843
850,2026-05-11 16:10:10.520005,0.5139934,-0.14836231,0.30398116,-2.3116667,-4.76536,1.9162843
851,2026-05-11 16:10:10.522760,0.5807656,-0.12201932,0.31306705,-2.3116667,-4.76536,1.9162843
852,2026-05-11 16:10:10.525454,0.5807656,-0.12201932,0.31306705,-2.3437371,-4.742147,1.9666806
853,2026-05-11 16:10:10.528016,0.5807656,-0.12201932,0.31306705,-2.3437371,-4.742147,1.9666806
854,2026-05-11 16:10:10.530731,0.5807656,-0.12201932,0.31306705,-2.3437371,-4.742147,1.9666806
855,2026-05-11 16:10:10.533800,0.5807656,-0.12201932,0.31306705,-2.8947377,-4.479933,2.033876
856,2026-05-11 16:10:10.536700,0.7510804,-0.029757833,0.28623623,-2.8947377,-4.479933,2.033876
857,2026-05-11 16:10:10.539437,0.7510804,-0.029757833,0.28623623,-2.8947377,-4.479933,2.033876
858,2026-05-11 16:10:10.542085,0.7510804,-0.029757833,0.28623623,-2.8947377,-4.479933,2.033876
859,2026-05-11 16:10:10.544854,0.7510804,-0.029757833,0.28623623,-2.8947377,-4.479933,2.033876
860,2026-05-11 16:10:10.547421,0.7510804,-0.029757833,0.28623623,-2.8947377,-4.479933,2.033876
861,2026-05-11 16:10:10.550492,0.7510804,-0.029757833,0.28623623,-2.8947377,-4.479933,2.033876
862,2026-05-11 16:10:10.553344,0.7510804,-0.029757833,0.28623623,-2.8947377,-4.479933,2.033876
863,2026-05-11 16:10:10.555954,0.7510804,-0.029757833,0.28623623,-2.8947377,-4.479933,2.033876
864,2026-05-11 16:10:10.558561,0.7510804,-0.029757833,0.28623623,-2.8947377,-4.479933,2.033876
865,2026-05-11 16:10:10.561280,0.7510804,-0.029757833,0.28623623,-2.8947377,-4.479933,2.033876
866,2026-05-11 16:10:10.563875,0.7510804,-0.029757833,0.28623623,-2.8947377,-4.479933,2.033876
867,2026-05-11 16:10:10.566871,0.8612698,-0.018781584,0.32861674,-2.8947377,-4.479933,2.033876
868,2026-05-11 16:10:10.569734,0.8995037,-0.046039272,0.485943,-3.7528505,-4.071417,2.025171
869,2026-05-11 16:10:10.572338,0.8995037,-0.046039272,0.485943,-3.7528505,-4.071417,2.025171
870,2026-05-11 16:10:10.575002,0.8995037,-0.046039272,0.485943,-4.525595,-3.6671767,1.9732474
871,2026-05-11 16:10:10.577571,0.8995037,-0.046039272,0.485943,-4.525595,-3.6671767,1.9732474
872,2026-05-11 16:10:10.580271,0.8995037,-0.046039272,0.485943,-4.525595,-3.6671767,1.9732474
873,2026-05-11 16:10:10.583204,0.8995037,-0.046039272,0.485943,-4.525595,-3.6671767,1.9732474
874,2026-05-11 16:10:10.586239,0.8995037,-0.046039272,0.485943,-4.525595,-3.6671767,1.9732474
875,2026-05-11 16:10:10.588875,0.8995037,-0.046039272,0.485943,-4.525595,-3.6671767,1.9732474
876,2026-05-11 16:10:10.591655,0.8995037,-0.046039272,0.485943,-4.525595,-3.6671767,1.9732474
877,2026-05-11 16:10:10.594358,0.8995037,-0.046039272,0.485943,-4.525595,-3.6671767,1.9732474
878,2026-05-11 16:10:10.597128,0.8995037,-0.046039272,0.485943,-4.525595,-3.6671767,1.9732474
879,2026-05-11 16:10:10.600225,0.8995037,-0.046039272,0.485943,-4.525595,-3.6671767,1.9732474
880,2026-05-11 16:10:10.603112,0.8995037,-0.046039272,0.485943,-4.525595,-3.6671767,1.9732474
881,2026-05-11 16:10:10.605714,0.8995037,-0.046039272,0.485943,-4.525595,-3.6671767,1.9732474
882,2026-05-11 16:10:10.608500,0.9338349,-0.096651986,0.84864706,-5.2280903,-3.2997413,1.8513799
883,2026-05-11 16:10:10.611095,0.9338349,-0.096651986,0.84864706,-5.2280903,-3.2997413,1.8513799
884,2026-05-11 16:10:10.613699,0.9338349,-0.096651986,0.84864706,-5.2280903,-3.2997413,1.8513799
885,2026-05-11 16:10:10.616521,0.9338349,-0.096651986,0.84864706,-5.2280903,-3.2997413,1.8513799
886,2026-05-11 16:10:10.619429,0.9338349,-0.096651986,0.84864706,-5.2280903,-3.2997413,1.8513799
887,2026-05-11 16:10:10.622222,0.9338349,-0.096651986,0.84864706,-5.2280903,-3.2997413,1.8513799
888,2026-05-11 16:10:10.624850,0.9338349,-0.096651986,0.84864706,-5.2280903,-3.2997413,1.8513799
889,2026-05-11 16:10:10.627428,0.9338349,-0.096651986,0.84864706,-5.2280903,-3.2997413,1.8513799
890,2026-05-11 16:10:10.630084,0.97719115,-0.13543473,1.0882342,-5.2280903,-3.2997413,1.8513799
891,2026-05-11 16:10:10.632698,0.97719115,-0.13543473,1.0882342,-5.2280903,-3.2997413,1.8513799
892,2026-05-11 16:10:10.636030,0.97719115,-0.13543473,1.0882342,-5.2280903,-3.2997413,1.8513799
893,2026-05-11 16:10:10.638726,0.97719115,-0.13543473,1.0882342,-5.2280903,-3.2997413,1.8513799
894,2026-05-11 16:10:10.641440,0.97719115,-0.13543473,1.0882342,-5.3650765,-3.3119586,1.7282904
895,2026-05-11 16:10:10.644099,1.1459205,-0.10293283,1.7871774,-5.3650765,-3.3119586,1.7282904
896,2026-05-11 16:10:10.646709,1.1459205,-0.10293283,1.7871774,-5.3650765,-3.3119586,1.7282904
897,2026-05-11 16:10:10.649602,1.1459205,-0.10293283,1.7871774,-4.5721736,-3.7988183,1.3968961
898,2026-05-11 16:10:10.652698,1.1459205,-0.10293283,1.7871774,-4.5721736,-3.7988183,1.3968961
899,2026-05-11 16:10:10.655352,1.1459205,-0.10293283,1.7871774,-4.5721736,-3.7988183,1.3968961
900,2026-05-11 16:10:10.657953,1.1459205,-0.10293283,1.7871774,-4.5721736,-3.7988183,1.3968961
901,2026-05-11 16:10:10.660700,1.1459205,-0.10293283,1.7871774,-4.5721736,-3.7988183,1.3968961
902,2026-05-11 16:10:10.663465,1.0370117,-0.099518,2.0453024,-2.5462391,-4.6955686,0.96852684
903,2026-05-11 16:10:10.666490,1.0370117,-0.099518,2.0453024,-2.5462391,-4.6955686,0.96852684
904,2026-05-11 16:10:10.669553,1.0370117,-0.099518,2.0453024,-2.5462391,-4.6955686,0.96852684
905,2026-05-11 16:10:10.672163,1.0370117,-0.099518,2.0453024,-2.5462391,-4.6955686,0.96852684
906,2026-05-11 16:10:10.674750,1.0370117,-0.099518,2.0453024,-2.5462391,-4.6955686,0.96852684
907,2026-05-11 16:10:10.677344,1.0370117,-0.099518,2.0453024,-2.5462391,-4.6955686,0.96852684
908,2026-05-11 16:10:10.680065,1.0370117,-0.099518,2.0453024,-2.5462391,-4.6955686,0.96852684
909,2026-05-11 16:10:10.682854,1.0370117,-0.099518,2.0453024,-2.5462391,-4.6955686,0.96852684
910,2026-05-11 16:10:10.686134,1.0370117,-0.099518,2.0453024,-1.4501941,-5.2149568,0.926988
911,2026-05-11 16:10:10.688726,1.0370117,-0.099518,2.0453024,-1.4501941,-5.2149568,0.926988
912,2026-05-11 16:10:10.691506,1.0370117,-0.099518,2.0453024,-1.4501941,-5.2149568,0.926988
913,2026-05-11 16:10:10.694350,0.8253531,-0.097749606,1.9835913,-0.06811147,-5.8372755,1.217149
914,2026-05-11 16:10:10.697071,0.8253531,-0.097749606,1.9835913,-0.06811147,-5.8372755,1.217149
915,2026-05-11 16:10:10.700063,0.8253531,-0.097749606,1.9835913,-0.06811147,-5.8372755,1.217149
916,2026-05-11 16:10:10.703037,0.8253531,-0.097749606,1.9835913,-0.06811147,-5.8372755,1.217149
917,2026-05-11 16:10:10.705736,0.8253531,-0.097749606,1.9835913,-0.06811147,-5.8372755,1.217149
918,2026-05-11 16:10:10.708340,0.8253531,-0.097749606,1.9835913,-0.06811147,-5.8372755,1.217149
919,2026-05-11 16:10:10.711058,0.8253531,-0.097749606,1.9835913,-0.06811147,-5.8372755,1.217149
920,2026-05-11 16:10:10.713866,0.54027545,-0.24245316,1.6334491,-0.06811147,-5.8372755,1.217149
921,2026-05-11 16:10:10.716975,0.54027545,-0.24245316,1.6334491,-0.06811147,-5.8372755,1.217149
922,2026-05-11 16:10:10.719907,0.68333256,-0.018720604,0.8960889,-0.026419923,-5.669135,2.0442605
923,2026-05-11 16:10:10.722512,0.68333256,-0.018720604,0.8960889,-0.026419923,-5.669135,2.0442605
924,2026-05-11 16:10:10.725075,0.68333256,-0.018720604,0.8960889,-0.026419923,-5.669135,2.0442605
925,2026-05-11 16:10:10.727686,0.68333256,-0.018720604,0.8960889,-0.026419923,-5.669135,2.0442605
926,2026-05-11 16:10:10.730210,0.68333256,-0.018720604,0.8960889,-0.026419923,-5.669135,2.0442605
927,2026-05-11 16:10:10.733085,0.68333256,-0.018720604,0.8960889,-0.026419923,-5.669135,2.0442605
928,2026-05-11 16:10:10.736255,0.68333256,-0.018720604,0.8960889,-0.026419923,-5.669135,2.0442605
929,2026-05-11 16:10:10.738992,0.68333256,-0.018720604,0.8960889,-0.026419923,-5.669135,2.0442605
930,2026-05-11 16:10:10.741678,0.68333256,-0.018720604,0.8960889,-0.026419923,-5.669135,2.0442605
931,2026-05-11 16:10:10.744583,0.8468787,-0.10092052,0.6647339,-0.6441574,-5.219385,2.2527182
932,2026-05-11 16:10:10.747307,1.0342066,-0.09317617,0.68985736,-0.6441574,-5.219385,2.2527182
933,2026-05-11 16:10:10.750321,1.0342066,-0.09317617,0.68985736,-0.6441574,-5.219385,2.2527182
934,2026-05-11 16:10:10.753220,1.0342066,-0.09317617,0.68985736,-0.6441574,-5.219385,2.2527182
935,2026-05-11 16:10:10.755842,1.0342066,-0.09317617,0.68985736,-0.6441574,-5.219385,2.2527182
936,2026-05-11 16:10:10.758676,1.0342066,-0.09317617,0.68985736,-0.6441574,-5.219385,2.2527182
937,2026-05-11 16:10:10.761464,1.0342066,-0.09317617,0.68985736,-1.8235855,-4.5175014,2.5503623
938,2026-05-11 16:10:10.764138,1.0342066,-0.09317617,0.68985736,-1.8235855,-4.5175014,2.5503623
939,2026-05-11 16:10:10.767209,1.0342066,-0.09317617,0.68985736,-1.8235855,-4.5175014,2.5503623
940,2026-05-11 16:10:10.770141,1.5736895,0.015305771,0.9727397,-2.453235,-4.172973,2.5294402
941,2026-05-11 16:10:10.772827,1.5736895,0.015305771,0.9727397,-2.453235,-4.172973,2.5294402
942,2026-05-11 16:10:10.775556,1.5736895,0.015305771,0.9727397,-2.453235,-4.172973,2.5294402
943,2026-05-11 16:10:10.778315,1.5736895,0.015305771,0.9727397,-2.453235,-4.172973,2.5294402
944,2026-05-11 16:10:10.780993,1.5736895,0.015305771,0.9727397,-2.453235,-4.172973,2.5294402
945,2026-05-11 16:10:10.783926,1.5736895,0.015305771,0.9727397,-2.453235,-4.172973,2.5294402
946,2026-05-11 16:10:10.786633,1.5736895,0.015305771,0.9727397,-2.453235,-4.172973,2.5294402
947,2026-05-11 16:10:10.789230,1.5736895,0.015305771,0.9727397,-2.453235,-4.172973,2.5294402
948,2026-05-11 16:10:10.791829,1.5736895,0.015305771,0.9727397,-2.453235,-4.172973,2.5294402
949,2026-05-11 16:10:10.794387,1.5736895,0.015305771,0.9727397,-2.453235,-4.172973,2.5294402
950,2026-05-11 16:10:10.796968,1.5736895,0.015305771,0.9727397,-2.453235,-4.172973,2.5294402
951,2026-05-11 16:10:10.800153,1.5736895,0.015305771,0.9727397,-2.453235,-4.172973,2.5294402
952,2026-05-11 16:10:10.803143,1.5736895,0.015305771,0.9727397,-2.453235,-4.172973,2.5294402
953,2026-05-11 16:10:10.805899,1.5736895,0.015305771,0.9727397,-2.453235,-4.172973,2.5294402
954,2026-05-11 16:10:10.808708,1.5736895,0.015305771,0.9727397,-2.453235,-4.172973,2.5294402
955,2026-05-11 16:10:10.811364,1.5736895,0.015305771,0.9727397,-2.453235,-4.172973,2.5294402
956,2026-05-11 16:10:10.814175,1.5736895,0.015305771,0.9727397,-2.453235,-4.172973,2.5294402
957,2026-05-11 16:10:10.817408,1.5736895,0.015305771,0.9727397,-2.453235,-4.172973,2.5294402
958,2026-05-11 16:10:10.820227,1.8426076,0.12384869,1.3723363,-2.453235,-4.172973,2.5294402
959,2026-05-11 16:10:10.822826,1.8426076,0.12384869,1.3723363,-2.453235,-4.172973,2.5294402
960,2026-05-11 16:10:10.825597,1.8426076,0.12384869,1.3723363,-2.453235,-4.172973,2.5294402
961,2026-05-11 16:10:10.828405,1.6031423,0.0757971,1.7378453,-2.6340508,-4.2048907,1.8467983
962,2026-05-11 16:10:10.831084,1.6031423,0.0757971,1.7378453,-2.6340508,-4.2048907,1.8467983
963,2026-05-11 16:10:10.834250,1.6031423,0.0757971,1.7378453,-2.6340508,-4.2048907,1.8467983
964,2026-05-11 16:10:10.837109,1.6031423,0.0757971,1.7378453,-2.6340508,-4.2048907,1.8467983
965,2026-05-11 16:10:10.839797,1.6031423,0.0757971,1.7378453,-2.6340508,-4.2048907,1.8467983
966,2026-05-11 16:10:10.842428,1.6031423,0.0757971,1.7378453,-2.6340508,-4.2048907,1.8467983
967,2026-05-11 16:10:10.845067,1.6031423,0.0757971,1.7378453,-2.1164954,-4.468785,1.0383182
968,2026-05-11 16:10:10.847871,1.6031423,0.0757971,1.7378453,-2.1164954,-4.468785,1.0383182
969,2026-05-11 16:10:10.850880,1.6031423,0.0757971,1.7378453,-2.1164954,-4.468785,1.0383182
970,2026-05-11 16:10:10.853684,1.6031423,0.0757971,1.7378453,-2.1164954,-4.468785,1.0383182
971,2026-05-11 16:10:10.856345,1.6031423,0.0757971,1.7378453,-2.1164954,-4.468785,1.0383182
972,2026-05-11 16:10:10.858925,1.6031423,0.0757971,1.7378453,-2.1164954,-4.468785,1.0383182
973,2026-05-11 16:10:10.861539,1.6031423,0.0757971,1.7378453,-2.1164954,-4.468785,1.0383182
974,2026-05-11 16:10:10.864095,1.6031423,0.0757971,1.7378453,-2.1164954,-4.468785,1.0383182
975,2026-05-11 16:10:10.867207,1.2948316,0.038965687,1.7263201,-2.1164954,-4.468785,1.0383182
976,2026-05-11 16:10:10.870074,1.2948316,0.038965687,1.7263201,-1.4501941,-4.7784934,0.8127562
977,2026-05-11 16:10:10.872684,1.2948316,0.038965687,1.7263201,-1.4501941,-4.7784934,0.8127562
978,2026-05-11 16:10:10.875398,1.2948316,0.038965687,1.7263201,-1.4501941,-4.7784934,0.8127562
979,2026-05-11 16:10:10.877986,1.2948316,0.038965687,1.7263201,-1.4501941,-4.7784934,0.8127562
980,2026-05-11 16:10:10.880709,1.2948316,0.038965687,1.7263201,-1.4501941,-4.7784934,0.8127562
981,2026-05-11 16:10:10.883591,1.2948316,0.038965687,1.7263201,-1.4501941,-4.7784934,0.8127562
982,2026-05-11 16:10:10.886588,1.2948316,0.038965687,1.7263201,-1.0975721,-5.040707,1.106277
983,2026-05-11 16:10:10.889263,1.2948316,0.038965687,1.7263201,-1.0975721,-5.040707,1.106277
984,2026-05-11 16:10:10.891837,1.2948316,0.038965687,1.7263201,-1.0975721,-5.040707,1.106277
985,2026-05-11 16:10:10.894544,1.2948316,0.038965687,1.7263201,-1.0975721,-5.040707,1.106277
986,2026-05-11 16:10:10.897126,1.2948316,0.038965687,1.7263201,-1.0975721,-5.040707,1.106277
987,2026-05-11 16:10:10.900213,1.0730504,0.017318083,1.3870322,-1.0975721,-5.040707,1.106277
988,2026-05-11 16:10:10.903101,1.1903133,0.05079565,1.1061621,-1.0975721,-5.040707,1.106277
989,2026-05-11 16:10:10.905693,1.1903133,0.05079565,1.1061621,-1.0975721,-5.040707,1.106277
990,2026-05-11 16:10:10.908509,1.1903133,0.05079565,1.1061621,-1.0975721,-5.040707,1.106277
991,2026-05-11 16:10:10.911349,1.1903133,0.05079565,1.1061621,-1.589624,-4.865847,1.6085609
992,2026-05-11 16:10:10.914149,1.1903133,0.05079565,1.1061621,-1.589624,-4.865847,1.6085609
993,2026-05-11 16:10:10.917264,1.1903133,0.05079565,1.1061621,-1.589624,-4.865847,1.6085609
994,2026-05-11 16:10:10.920281,1.1903133,0.05079565,1.1061621,-1.589624,-4.865847,1.6085609
995,2026-05-11 16:10:10.922885,1.1903133,0.05079565,1.1061621,-1.589624,-4.865847,1.6085609
996,2026-05-11 16:10:10.925473,1.1903133,0.05079565,1.1061621,-1.589624,-4.865847,1.6085609
997,2026-05-11 16:10:10.928121,1.1903133,0.05079565,1.1061621,-1.589624,-4.865847,1.6085609
998,2026-05-11 16:10:10.930716,1.1903133,0.05079565,1.1061621,-1.589624,-4.865847,1.6085609
999,2026-05-11 16:10:10.933639,1.1903133,0.05079565,1.1061621,-2.7473664,-4.2852197,1.86207
1000,2026-05-11 16:10:10.936600,1.5875926,0.03585575,1.0775019,-2.7473664,-4.2852197,1.86207
1001,2026-05-11 16:10:10.939350,1.5875926,0.03585575,1.0775019,-2.7473664,-4.2852197,1.86207
1002,2026-05-11 16:10:10.942078,1.5875926,0.03585575,1.0775019,-3.971235,-3.5969272,1.8507689
1003,2026-05-11 16:10:10.944769,1.5875926,0.03585575,1.0775019,-3.971235,-3.5969272,1.8507689
1004,2026-05-11 16:10:10.947340,1.5875926,0.03585575,1.0775019,-3.971235,-3.5969272,1.8507689
1005,2026-05-11 16:10:10.950357,1.5875926,0.03585575,1.0775019,-3.971235,-3.5969272,1.8507689
1006,2026-05-11 16:10:10.953230,1.5875926,0.03585575,1.0775019,-3.971235,-3.5969272,1.8507689
1007,2026-05-11 16:10:10.955855,1.5875926,0.03585575,1.0775019,-3.971235,-3.5969272,1.8507689
1008,2026-05-11 16:10:10.958475,1.5875926,0.03585575,1.0775019,-3.971235,-3.5969272,1.8507689
1009,2026-05-11 16:10:10.961218,1.7207712,-0.22976951,2.0013971,-6.299395,-1.682781,1.4506522
1010,2026-05-11 16:10:10.963978,1.7207712,-0.22976951,2.0013971,-6.299395,-1.682781,1.4506522
1011,2026-05-11 16:10:10.967119,1.7207712,-0.22976951,2.0013971,-6.299395,-1.682781,1.4506522
1012,2026-05-11 16:10:10.969943,1.7207712,-0.22976951,2.0013971,-6.299395,-1.682781,1.4506522
1013,2026-05-11 16:10:10.972583,1.7207712,-0.22976951,2.0013971,-6.299395,-1.682781,1.4506522
1014,2026-05-11 16:10:10.975250,1.7207712,-0.22976951,2.0013971,-6.299395,-1.682781,1.4506522
1015,2026-05-11 16:10:10.978050,1.7207712,-0.22976951,2.0013971,-6.299395,-1.682781,1.4506522
1016,2026-05-11 16:10:10.980650,1.7207712,-0.22976951,2.0013971,-6.299395,-1.682781,1.4506522
1017,2026-05-11 16:10:10.983920,1.7207712,-0.22976951,2.0013971,-6.299395,-1.682781,1.4506522
1018,2026-05-11 16:10:10.986762,1.7207712,-0.22976951,2.0013971,-6.299395,-1.682781,1.4506522
1019,2026-05-11 16:10:10.989542,1.7207712,-0.22976951,2.0013971,-6.299395,-1.682781,1.4506522
1020,2026-05-11 16:10:10.992148,1.7207712,-0.22976951,2.0013971,-6.299395,-1.682781,1.4506522
1021,2026-05-11 16:10:10.995107,1.7207712,-0.22976951,2.0013971,-6.299395,-1.682781,1.4506522
1022,2026-05-11 16:10:10.997893,1.7207712,-0.22976951,2.0013971,-6.299395,-1.682781,1.4506522
1023,2026-05-11 16:10:11.001242,1.7313205,-0.254649,2.5393553,-6.299395,-1.682781,1.4506522
1024,2026-05-11 16:10:11.004168,1.7313205,-0.254649,2.5393553,-6.299395,-1.682781,1.4506522
1025,2026-05-11 16:10:11.006953,1.7313205,-0.254649,2.5393553,-6.038708,-1.1771374,1.0093021
1026,2026-05-11 16:10:11.009647,1.7313205,-0.254649,2.5393553,-6.038708,-1.1771374,1.0093021
1027,2026-05-11 16:10:11.012477,1.5108198,-0.12842213,3.1325607,-3.7300959,-1.5522085,0.27046058
1028,2026-05-11 16:10:11.015185,0.8823686,-0.04170975,2.4406302,0.6067419,-2.4115434,-0.31978795
1029,2026-05-11 16:10:11.018503,0.8823686,-0.04170975,2.4406302,0.6067419,-2.4115434,-0.31978795
1030,2026-05-11 16:10:11.021168,0.8823686,-0.04170975,2.4406302,0.6067419,-2.4115434,-0.31978795
1031,2026-05-11 16:10:11.023951,0.8823686,-0.04170975,2.4406302,0.6067419,-2.4115434,-0.31978795
1032,2026-05-11 16:10:11.026594,0.8823686,-0.04170975,2.4406302,0.6067419,-2.4115434,-0.31978795
1033,2026-05-11 16:10:11.029341,0.8823686,-0.04170975,2.4406302,0.6067419,-2.4115434,-0.31978795
1034,2026-05-11 16:10:11.032202,0.8823686,-0.04170975,2.4406302,0.6067419,-2.4115434,-0.31978795
1035,2026-05-11 16:10:11.035301,0.8823686,-0.04170975,2.4406302,0.6067419,-2.4115434,-0.31978795
1036,2026-05-11 16:10:11.038036,0.8823686,-0.04170975,2.4406302,0.6067419,-2.4115434,-0.31978795
1037,2026-05-11 16:10:11.040811,0.7020531,0.018842563,1.8796829,0.6067419,-2.4115434,-0.31978795
1038,2026-05-11 16:10:11.043405,0.7020531,0.018842563,1.8796829,0.6067419,-2.4115434,-0.31978795
1039,2026-05-11 16:10:11.045967,0.7020531,0.018842563,1.8796829,0.6067419,-2.4115434,-0.31978795
1040,2026-05-11 16:10:11.048733,0.7020531,0.018842563,1.8796829,0.6067419,-2.4115434,-0.31978795
1041,2026-05-11 16:10:11.051817,0.7020531,0.018842563,1.8796829,0.6067419,-2.4115434,-0.31978795
1042,2026-05-11 16:10:11.054688,0.7020531,0.018842563,1.8796829,0.6067419,-2.4115434,-0.31978795
1043,2026-05-11 16:10:11.057336,0.7020531,0.018842563,1.8796829,0.6067419,-2.4115434,-0.31978795
1044,2026-05-11 16:10:11.059925,0.7020531,0.018842563,1.8796829,0.6067419,-2.4115434,-0.31978795
1045,2026-05-11 16:10:11.062583,0.7020531,0.018842563,1.8796829,0.6067419,-2.4115434,-0.31978795
1046,2026-05-11 16:10:11.065157,0.7020531,0.018842563,1.8796829,0.6067419,-2.4115434,-0.31978795
1047,2026-05-11 16:10:11.068212,0.7020531,0.018842563,1.8796829,0.6067419,-2.4115434,-0.31978795
1048,2026-05-11 16:10:11.071198,0.7020531,0.018842563,1.8796829,0.6067419,-2.4115434,-0.31978795
1049,2026-05-11 16:10:11.073808,0.7020531,0.018842563,1.8796829,0.6067419,-2.4115434,-0.31978795
1050,2026-05-11 16:10:11.076401,0.7020531,0.018842563,1.8796829,0.6067419,-2.4115434,-0.31978795
1051,2026-05-11 16:10:11.079015,0.7020531,0.018842563,1.8796829,0.6067419,-2.4115434,-0.31978795
1052,2026-05-11 16:10:11.081600,0.7020531,0.018842563,1.8796829,0.6067419,-2.4115434,-0.31978795
1053,2026-05-11 16:10:11.084815,0.7020531,0.018842563,1.8796829,0.6067419,-2.4115434,-0.31978795
1054,2026-05-11 16:10:11.087602,0.7020531,0.018842563,1.8796829,0.6067419,-2.4115434,-0.31978795
1055,2026-05-11 16:10:11.090302,0.7020531,0.018842563,1.8796829,0.6067419,-2.4115434,-0.31978795
1056,2026-05-11 16:10:11.092874,0.7020531,0.018842563,1.8796829,0.6067419,-2.4115434,-0.31978795
1057,2026-05-11 16:10:11.095611,0.7020531,0.018842563,1.8796829,0.6067419,-2.4115434,-0.31978795
1058,2026-05-11 16:10:11.098206,0.7020531,0.018842563,1.8796829,0.6067419,-2.4115434,-0.31978795
1059,2026-05-11 16:10:11.101205,0.7020531,0.018842563,1.8796829,0.6067419,-2.4115434,-0.31978795
1060,2026-05-11 16:10:11.103937,0.7020531,0.018842563,1.8796829,0.6067419,-2.4115434,-0.31978795
1061,2026-05-11 16:10:11.106511,0.7020531,0.018842563,1.8796829,0.6067419,-2.4115434,-0.31978795
1062,2026-05-11 16:10:11.109176,0.7020531,0.018842563,1.8796829,0.6067419,-2.4115434,-0.31978795
1063,2026-05-11 16:10:11.111843,0.7020531,0.018842563,1.8796829,0.6067419,-2.4115434,-0.31978795
1064,2026-05-11 16:10:11.114401,0.7020531,0.018842563,1.8796829,0.6067419,-2.4115434,-0.31978795
1065,2026-05-11 16:10:11.117565,0.7020531,0.018842563,1.8796829,0.6881397,-1.4340062,0.0047342055
1066,2026-05-11 16:10:11.120352,0.7020531,0.018842563,1.8796829,0.6881397,-1.4340062,0.0047342055
1067,2026-05-11 16:10:11.122957,0.7020531,0.018842563,1.8796829,0.6881397,-1.4340062,0.0047342055
1068,2026-05-11 16:10:11.125549,0.7020531,0.018842563,1.8796829,0.6881397,-1.4340062,0.0047342055
1069,2026-05-11 16:10:11.128245,0.7020531,0.018842563,1.8796829,0.6881397,-1.4340062,0.0047342055
1070,2026-05-11 16:10:11.130846,0.7020531,0.018842563,1.8796829,0.6881397,-1.4340062,0.0047342055
1071,2026-05-11 16:10:11.134013,0.7020531,0.018842563,1.8796829,0.6881397,-1.4340062,0.0047342055
1072,2026-05-11 16:10:11.136803,0.6507697,0.06445498,1.6907084,0.6881397,-1.4340062,0.0047342055
1073,2026-05-11 16:10:11.139490,0.6507697,0.06445498,1.6907084,0.6881397,-1.4340062,0.0047342055
1074,2026-05-11 16:10:11.142216,0.6507697,0.06445498,1.6907084,0.6881397,-1.4340062,0.0047342055
1075,2026-05-11 16:10:11.144818,0.6507697,0.06445498,1.6907084,0.6881397,-1.4340062,0.0047342055
1076,2026-05-11 16:10:11.147539,0.6529039,0.100554645,1.5895439,0.37400225,-0.82909685,0.14202617
1077,2026-05-11 16:10:11.150558,0.6529039,0.100554645,1.5895439,0.37400225,-0.82909685,0.14202617
1078,2026-05-11 16:10:11.153438,0.6529039,0.100554645,1.5895439,0.37400225,-0.82909685,0.14202617
1079,2026-05-11 16:10:11.156056,0.6529039,0.100554645,1.5895439,0.37400225,-0.82909685,0.14202617
1080,2026-05-11 16:10:11.158647,0.6529039,0.100554645,1.5895439,0.37400225,-0.82909685,0.14202617
1081,2026-05-11 16:10:11.161387,0.6529039,0.100554645,1.5895439,0.37400225,-0.82909685,0.14202617
1082,2026-05-11 16:10:11.163976,0.6529039,0.100554645,1.5895439,0.37400225,-0.82909685,0.14202617
1083,2026-05-11 16:10:11.167089,0.6529039,0.100554645,1.5895439,0.37400225,-0.82909685,0.14202617
1084,2026-05-11 16:10:11.169795,0.6529039,0.100554645,1.5895439,0.37400225,-0.82909685,0.14202617
1085,2026-05-11 16:10:11.172432,0.6529039,0.100554645,1.5895439,0.37400225,-0.82909685,0.14202617
1086,2026-05-11 16:10:11.175181,0.6529039,0.100554645,1.5895439,0.37400225,-0.82909685,0.14202617
1087,2026-05-11 16:10:11.177806,0.6760151,0.14031307,1.5177104,0.37400225,-0.82909685,0.14202617
1088,2026-05-11 16:10:11.180587,0.6760151,0.14031307,1.5177104,0.37400225,-0.82909685,0.14202617
1089,2026-05-11 16:10:11.183379,0.6760151,0.14031307,1.5177104,0.37400225,-0.82909685,0.14202617
1090,2026-05-11 16:10:11.187039,0.6760151,0.14031307,1.5177104,-0.15592335,0.14950927,0.31520647
1091,2026-05-11 16:10:11.189896,0.6760151,0.14031307,1.5177104,-0.15592335,0.14950927,0.31520647
1092,2026-05-11 16:10:11.192545,0.6760151,0.14031307,1.5177104,-0.15592335,0.14950927,0.31520647
1093,2026-05-11 16:10:11.195141,0.6760151,0.14031307,1.5177104,-0.15592335,0.14950927,0.31520647
1094,2026-05-11 16:10:11.197951,0.6760151,0.14031307,1.5177104,-0.15592335,0.14950927,0.31520647
1095,2026-05-11 16:10:11.200706,0.6760151,0.14031307,1.5177104,-0.15592335,0.14950927,0.31520647
1096,2026-05-11 16:10:11.203986,0.6760151,0.14031307,1.5177104,-0.15592335,0.14950927,0.31520647
1097,2026-05-11 16:10:11.207026,0.67205137,0.17781526,1.5246011,-0.15592335,0.14950927,0.31520647
1098,2026-05-11 16:10:11.209764,0.67205137,0.17781526,1.5246011,-0.15592335,0.14950927,0.31520647
1099,2026-05-11 16:10:11.212398,0.67205137,0.17781526,1.5246011,-0.15592335,0.14950927,0.31520647
1100,2026-05-11 16:10:11.215164,0.67205137,0.17781526,1.5246011,-0.15592335,0.14950927,0.31520647
1101,2026-05-11 16:10:11.218167,0.67205137,0.17781526,1.5246011,-0.15592335,0.14950927,0.31520647
1102,2026-05-11 16:10:11.221091,0.67205137,0.17781526,1.5246011,-0.37720928,0.65102965,0.38912117
1103,2026-05-11 16:10:11.223822,0.67205137,0.17781526,1.5246011,-0.37720928,0.65102965,0.38912117
1104,2026-05-11 16:10:11.226463,0.67205137,0.17781526,1.5246011,-0.37720928,0.65102965,0.38912117
1105,2026-05-11 16:10:11.229148,0.67205137,0.17781526,1.5246011,-0.4654793,0.8929323,0.39645153
1106,2026-05-11 16:10:11.231781,0.67205137,0.17781526,1.5246011,-0.4654793,0.8929323,0.39645153
1107,2026-05-11 16:10:11.235191,0.67205137,0.17781526,1.5246011,-0.4654793,0.8929323,0.39645153
1108,2026-05-11 16:10:11.237933,0.67205137,0.17781526,1.5246011,-0.4654793,0.8929323,0.39645153
1109,2026-05-11 16:10:11.240792,0.7236398,0.23989205,1.5833851,-0.4654793,0.8929323,0.39645153
1110,2026-05-11 16:10:11.243565,0.7584589,0.28776067,1.694672,0.11957687,0.8191703,0.21013765
1111,2026-05-11 16:10:11.246359,0.705529,0.25336844,1.6057645,0.5920811,0.7530441,0.069027774
1112,2026-05-11 16:10:11.249056,0.705529,0.25336844,1.6057645,0.9728029,0.77381355,0.00030543262
1113,2026-05-11 16:10:11.252227,0.705529,0.25336844,1.6057645,0.9728029,0.77381355,0.00030543262
1114,2026-05-11 16:10:11.254832,0.705529,0.25336844,1.6057645,0.9728029,0.77381355,0.00030543262
1115,2026-05-11 16:10:11.257517,0.705529,0.25336844,1.6057645,0.9728029,0.77381355,0.00030543262
1116,2026-05-11 16:10:11.260092,0.705529,0.25336844,1.6057645,0.9728029,0.77381355,0.00030543262
1117,2026-05-11 16:10:11.262762,0.705529,0.25336844,1.6057645,0.9728029,0.77381355,0.00030543262
1118,2026-05-11 16:10:11.265315,0.705529,0.25336844,1.6057645,0.9728029,0.77381355,0.00030543262
1119,2026-05-11 16:10:11.268329,0.705529,0.25336844,1.6057645,0.9728029,0.77381355,0.00030543262
1120,2026-05-11 16:10:11.271006,0.705529,0.25336844,1.6057645,0.9728029,0.77381355,0.00030543262
1121,2026-05-11 16:10:11.273555,0.705529,0.25336844,1.6057645,0.9728029,0.77381355,0.00030543262
1122,2026-05-11 16:10:11.276076,0.705529,0.25336844,1.6057645,0.9728029,0.77381355,0.00030543262
1123,2026-05-11 16:10:11.278793,0.705529,0.25336844,1.6057645,0.9728029,0.77381355,0.00030543262
1124,2026-05-11 16:10:11.281384,0.705529,0.25336844,1.6057645,0.9728029,0.77381355,0.00030543262
1125,2026-05-11 16:10:11.284711,0.705529,0.25336844,1.6057645,0.9728029,0.77381355,0.00030543262
1126,2026-05-11 16:10:11.287523,0.705529,0.25336844,1.6057645,0.9728029,0.77381355,0.00030543262
1127,2026-05-11 16:10:11.290235,0.705529,0.25336844,1.6057645,0.9728029,0.77381355,0.00030543262
1128,2026-05-11 16:10:11.292834,0.705529,0.25336844,1.6057645,0.9728029,0.77381355,0.00030543262
1129,2026-05-11 16:10:11.295560,0.705529,0.25336844,1.6057645,0.9728029,0.77381355,0.00030543262
1130,2026-05-11 16:10:11.298167,0.705529,0.25336844,1.6057645,0.9728029,0.77381355,0.00030543262
1131,2026-05-11 16:10:11.301334,0.705529,0.25336844,1.6057645,0.9728029,0.77381355,0.00030543262
1132,2026-05-11 16:10:11.304100,0.705529,0.25336844,1.6057645,0.9728029,0.77381355,0.00030543262
1133,2026-05-11 16:10:11.306857,0.705529,0.25336844,1.6057645,1.2017246,0.93508196,-0.09025534
1134,2026-05-11 16:10:11.309627,0.6949796,0.22385453,1.5155762,1.2017246,0.93508196,-0.09025534
1135,2026-05-11 16:10:11.312462,0.68833286,0.20348747,1.448804,1.1371256,1.3726143,-0.17608191
1136,2026-05-11 16:10:11.315116,0.69241846,0.17933974,1.3601403,1.1371256,1.3726143,-0.17608191
1137,2026-05-11 16:10:11.318320,0.69241846,0.17933974,1.3601403,1.1371256,1.3726143,-0.17608191
1138,2026-05-11 16:10:11.320991,0.69241846,0.17933974,1.3601403,1.1371256,1.3726143,-0.17608191
1139,2026-05-11 16:10:11.323590,0.69241846,0.17933974,1.3601403,1.1371256,1.3726143,-0.17608191
1140,2026-05-11 16:10:11.326335,0.69241846,0.17933974,1.3601403,1.1371256,1.3726143,-0.17608191
1141,2026-05-11 16:10:11.329150,0.69241846,0.17933974,1.3601403,1.1371256,1.3726143,-0.17608191
1142,2026-05-11 16:10:11.331841,0.69241846,0.17933974,1.3601403,1.1371256,1.3726143,-0.17608191
1143,2026-05-11 16:10:11.334723,0.69241846,0.17933974,1.3601403,1.1371256,1.3726143,-0.17608191
1144,2026-05-11 16:10:11.337584,0.69241846,0.17933974,1.3601403,1.1371256,1.3726143,-0.17608191
1145,2026-05-11 16:10:11.340237,0.69241846,0.17933974,1.3601403,1.1371256,1.3726143,-0.17608191
1146,2026-05-11 16:10:11.342803,0.69241846,0.17933974,1.3601403,1.1371256,1.3726143,-0.17608191
1147,2026-05-11 16:10:11.345460,0.69241846,0.17933974,1.3601403,1.1371256,1.3726143,-0.17608191
1148,2026-05-11 16:10:11.348038,0.69241846,0.17933974,1.3601403,1.1371256,1.3726143,-0.17608191
1149,2026-05-11 16:10:11.351121,0.69241846,0.17933974,1.3601403,1.1371256,1.3726143,-0.17608191
1150,2026-05-11 16:10:11.353882,0.69241846,0.17933974,1.3601403,1.1371256,1.3726143,-0.17608191
1151,2026-05-11 16:10:11.356511,0.69241846,0.17933974,1.3601403,1.1371256,1.3726143,-0.17608191
1152,2026-05-11 16:10:11.359337,0.69241846,0.17933974,1.3601403,1.1371256,1.3726143,-0.17608191
1153,2026-05-11 16:10:11.362038,0.69241846,0.17933974,1.3601403,0.8979719,1.6203201,-0.15485434
1154,2026-05-11 16:10:11.364715,0.69241846,0.17933974,1.3601403,0.8979719,1.6203201,-0.15485434
1155,2026-05-11 16:10:11.367886,0.69241846,0.17933974,1.3601403,0.8979719,1.6203201,-0.15485434
1156,2026-05-11 16:10:11.370715,0.69241846,0.17933974,1.3601403,0.8979719,1.6203201,-0.15485434
1157,2026-05-11 16:10:11.373322,0.69241846,0.17933974,1.3601403,0.8979719,1.6203201,-0.15485434
1158,2026-05-11 16:10:11.376096,0.69241846,0.17933974,1.3601403,0.8979719,1.6203201,-0.15485434
1159,2026-05-11 16:10:11.378828,0.70558995,0.1299466,1.3683115,0.8979719,1.6203201,-0.15485434
1160,2026-05-11 16:10:11.381424,0.70558995,0.1299466,1.3683115,0.8979719,1.6203201,-0.15485434
1161,2026-05-11 16:10:11.384336,0.70558995,0.1299466,1.3683115,0.8979719,1.6203201,-0.15485434
1162,2026-05-11 16:10:11.387262,0.70558995,0.1299466,1.3683115,0.8979719,1.6203201,-0.15485434
1163,2026-05-11 16:10:11.389907,0.70558995,0.1299466,1.3683115,0.8979719,1.6203201,-0.15485434
1164,2026-05-11 16:10:11.392502,0.70558995,0.1299466,1.3683115,0.8979719,1.6203201,-0.15485434
1165,2026-05-11 16:10:11.395285,0.74595815,0.117140986,1.4414866,0.8979719,1.6203201,-0.15485434
1166,2026-05-11 16:10:11.397890,0.74595815,0.117140986,1.4414866,0.8979719,1.6203201,-0.15485434
1167,2026-05-11 16:10:11.401022,0.74595815,0.117140986,1.4414866,0.8979719,1.6203201,-0.15485434
1168,2026-05-11 16:10:11.403815,0.74595815,0.117140986,1.4414866,0.77564615,1.754405,-0.1301143
1169,2026-05-11 16:10:11.415816,1.0026805,-0.023720896,1.8695604,1.0154108,2.0890064,-0.4644103
1170,2026-05-11 16:10:11.433492,1.0026805,-0.023720896,1.8695604,1.0154108,2.0890064,-0.4644103
1171,2026-05-11 16:10:11.442230,0.90127206,-0.1340932,1.852791,1.5222762,2.8667905,-0.57864213
1172,2026-05-11 16:10:11.445342,0.90127206,-0.1340932,1.852791,1.5222762,2.8667905,-0.57864213
1173,2026-05-11 16:10:11.448169,0.90127206,-0.1340932,1.852791,1.5222762,2.8667905,-0.57864213
1174,2026-05-11 16:10:11.451044,0.90127206,-0.1340932,1.852791,1.5222762,2.8667905,-0.57864213
1175,2026-05-11 16:10:11.454273,0.90127206,-0.1340932,1.852791,1.7637206,3.1630602,-0.49449542
1176,2026-05-11 16:10:11.457200,0.90127206,-0.1340932,1.852791,1.7637206,3.1630602,-0.49449542
1177,2026-05-11 16:10:11.460011,0.90127206,-0.1340932,1.852791,1.7637206,3.1630602,-0.49449542
1178,2026-05-11 16:10:11.462646,0.90127206,-0.1340932,1.852791,1.7637206,3.1630602,-0.49449542
1179,2026-05-11 16:10:11.465341,0.94438434,-0.14726469,1.8023003,1.7637206,3.1630602,-0.49449542
1180,2026-05-11 16:10:11.468425,0.94438434,-0.14726469,1.8023003,1.7637206,3.1630602,-0.49449542
1181,2026-05-11 16:10:11.471227,1.0807338,-0.14244732,1.715222,2.2808182,3.4252741,-0.3830125
1182,2026-05-11 16:10:11.474066,1.0807338,-0.14244732,1.715222,2.417652,3.4223726,-0.43951756
1183,2026-05-11 16:10:11.476948,1.1598847,-0.13702019,1.6649143,2.417652,3.4223726,-0.43951756
1184,2026-05-11 16:10:11.479579,1.1598847,-0.13702019,1.6649143,2.417652,3.4223726,-0.43951756
1185,2026-05-11 16:10:11.482313,1.1598847,-0.13702019,1.6649143,2.417652,3.4223726,-0.43951756
1186,2026-05-11 16:10:11.485470,1.1598847,-0.13702019,1.6649143,2.417652,3.4223726,-0.43951756
1187,2026-05-11 16:10:11.488252,1.1598847,-0.13702019,1.6649143,2.417652,3.4223726,-0.43951756
1188,2026-05-11 16:10:11.490990,1.1598847,-0.13702019,1.6649143,2.417652,3.4223726,-0.43951756
1189,2026-05-11 16:10:11.493731,1.1708001,-0.117689796,1.5847266,2.417652,3.4223726,-0.43951756
1190,2026-05-11 16:10:11.496344,1.1708001,-0.117689796,1.5847266,2.417652,3.4223726,-0.43951756
1191,2026-05-11 16:10:11.498935,1.1708001,-0.117689796,1.5847266,2.417652,3.4223726,-0.43951756
1192,2026-05-11 16:10:11.502248,1.1708001,-0.117689796,1.5847266,2.417652,3.4223726,-0.43951756
1193,2026-05-11 16:10:11.505396,1.1708001,-0.117689796,1.5847266,2.7088819,3.4315355,-0.68554354
1194,2026-05-11 16:10:11.508384,1.1708001,-0.117689796,1.5847266,2.7088819,3.4315355,-0.68554354
1195,2026-05-11 16:10:11.511560,1.1708001,-0.117689796,1.5847266,2.7088819,3.4315355,-0.68554354
1196,2026-05-11 16:10:11.514623,1.1708001,-0.117689796,1.5847266,2.7088819,3.4315355,-0.68554354
1197,2026-05-11 16:10:11.518366,1.1708001,-0.117689796,1.5847266,2.7088819,3.4315355,-0.68554354
1198,2026-05-11 16:10:11.521371,1.1708001,-0.117689796,1.5847266,2.7088819,3.4315355,-0.68554354
1199,2026-05-11 16:10:11.524499,1.1708001,-0.117689796,1.5847266,2.7088819,3.4315355,-0.68554354
1200,2026-05-11 16:10:11.527477,1.1708001,-0.117689796,1.5847266,2.7088819,3.4315355,-0.68554354
1201,2026-05-11 16:10:11.530442,1.1708001,-0.117689796,1.5847266,2.7088819,3.4315355,-0.68554354
1202,2026-05-11 16:10:11.533841,1.1708001,-0.117689796,1.5847266,2.7088819,3.4315355,-0.68554354
1203,2026-05-11 16:10:11.537016,1.1708001,-0.117689796,1.5847266,2.7088819,3.4315355,-0.68554354
1204,2026-05-11 16:10:11.539868,1.1708001,-0.117689796,1.5847266,2.8542678,3.5511124,-0.79091775
1205,2026-05-11 16:10:11.542664,0.9960337,-0.17257105,1.4183145,2.9023736,3.7201693,-0.77839506
1206,2026-05-11 16:10:11.545407,0.9960337,-0.17257105,1.4183145,2.9023736,3.7201693,-0.77839506
1207,2026-05-11 16:10:11.548178,0.94103056,-0.18708408,1.3411148,2.9023736,3.7201693,-0.77839506
1208,2026-05-11 16:10:11.551414,0.94103056,-0.18708408,1.3411148,2.9023736,3.7201693,-0.77839506
1209,2026-05-11 16:10:11.554260,0.94103056,-0.18708408,1.3411148,2.9463558,3.9403863,-0.6406449
1210,2026-05-11 16:10:11.556902,0.94103056,-0.18708408,1.3411148,2.9463558,3.9403863,-0.6406449
1211,2026-05-11 16:10:11.559524,0.93914014,-0.18244967,1.3182477,2.9463558,3.9403863,-0.6406449
1212,2026-05-11 16:10:11.562262,0.93914014,-0.18244967,1.3182477,3.040429,4.0132318,-0.5571091
1213,2026-05-11 16:10:11.564828,0.93914014,-0.18244967,1.3182477,3.040429,4.0132318,-0.5571091
1214,2026-05-11 16:10:11.568249,0.93914014,-0.18244967,1.3182477,3.040429,4.0132318,-0.5571091
1215,2026-05-11 16:10:11.571051,0.93914014,-0.18244967,1.3182477,3.040429,4.0132318,-0.5571091
1216,2026-05-11 16:10:11.573771,1.033048,-0.17513217,1.2212907,3.040429,4.0132318,-0.5571091
1217,2026-05-11 16:10:11.576603,1.1132967,-0.10896978,1.1025034,3.1998649,4.049884,-0.51068336
1218,2026-05-11 16:10:11.579215,1.1132967,-0.10896978,1.1025034,3.1998649,4.049884,-0.51068336
1219,2026-05-11 16:10:11.582331,1.1132967,-0.10896978,1.1025034,3.2959235,4.0016255,-0.63224554
1220,2026-05-11 16:10:11.585488,1.1132967,-0.10896978,1.1025034,3.2959235,4.0016255,-0.63224554
1221,2026-05-11 16:10:11.588227,1.1132967,-0.10896978,1.1025034,3.2959235,4.0016255,-0.63224554
1222,2026-05-11 16:10:11.590966,1.1132967,-0.10896978,1.1025034,3.2959235,4.0016255,-0.63224554
1223,2026-05-11 16:10:11.593733,1.1132967,-0.10896978,1.1025034,3.2959235,4.0016255,-0.63224554
1224,2026-05-11 16:10:11.596346,1.1132967,-0.10896978,1.1025034,3.2959235,4.0016255,-0.63224554
1225,2026-05-11 16:10:11.599107,1.1132967,-0.10896978,1.1025034,3.2959235,4.0016255,-0.63224554
1226,2026-05-11 16:10:11.602175,1.1132967,-0.10896978,1.1025034,3.3001995,3.9438987,-0.8208502
1227,2026-05-11 16:10:11.605011,1.1132967,-0.10896978,1.1025034,3.3001995,3.9438987,-0.8208502
1228,2026-05-11 16:10:11.607784,1.1132967,-0.10896978,1.1025034,3.3001995,3.9438987,-0.8208502
1229,2026-05-11 16:10:11.610574,1.1132967,-0.10896978,1.1025034,3.3001995,3.9438987,-0.8208502
1230,2026-05-11 16:10:11.613775,1.109577,-0.067321,1.0310358,3.3001995,3.9438987,-0.8208502
1231,2026-05-11 16:10:11.617169,1.109577,-0.067321,1.0310358,3.3001995,3.9438987,-0.8208502
1232,2026-05-11 16:10:11.620367,1.109577,-0.067321,1.0310358,3.3001995,3.9438987,-0.8208502
1233,2026-05-11 16:10:11.623072,1.109577,-0.067321,1.0310358,3.3001995,3.9438987,-0.8208502
1234,2026-05-11 16:10:11.625847,1.109577,-0.067321,1.0310358,3.3001995,3.9438987,-0.8208502
1235,2026-05-11 16:10:11.628803,1.109577,-0.067321,1.0310358,3.3001995,3.9438987,-0.8208502
1236,2026-05-11 16:10:11.631528,1.109577,-0.067321,1.0310358,3.3001995,3.9438987,-0.8208502
1237,2026-05-11 16:10:11.634941,1.109577,-0.067321,1.0310358,3.3001995,3.9438987,-0.8208502
1238,2026-05-11 16:10:11.637864,1.109577,-0.067321,1.0310358,3.3001995,3.9438987,-0.8208502
1239,2026-05-11 16:10:11.640535,1.109577,-0.067321,1.0310358,3.3001995,3.9438987,-0.8208502
1240,2026-05-11 16:10:11.643156,1.109577,-0.067321,1.0310358,3.3001995,3.9438987,-0.8208502
1241,2026-05-11 16:10:11.645835,1.109577,-0.067321,1.0310358,3.3001995,3.9438987,-0.8208502
1242,2026-05-11 16:10:11.648693,0.96578807,-0.05353971,0.9457869,3.3001995,3.9438987,-0.8208502
1243,2026-05-11 16:10:11.652263,0.96578807,-0.05353971,0.9457869,3.3001995,3.9438987,-0.8208502
1244,2026-05-11 16:10:11.655071,0.96578807,-0.05353971,0.9457869,3.3001995,3.9438987,-0.8208502
1245,2026-05-11 16:10:11.657924,0.96578807,-0.05353971,0.9457869,3.3001995,3.9438987,-0.8208502
1246,2026-05-11 16:10:11.660671,0.96578807,-0.05353971,0.9457869,3.3001995,3.9438987,-0.8208502
1247,2026-05-11 16:10:11.663437,0.96578807,-0.05353971,0.9457869,3.3001995,3.9438987,-0.8208502
1248,2026-05-11 16:10:11.666684,0.96578807,-0.05353971,0.9457869,3.2798882,3.8815904,-1.0877982
1249,2026-05-11 16:10:11.669796,0.96578807,-0.05353971,0.9457869,3.2798882,3.8815904,-1.0877982
1250,2026-05-11 16:10:11.672420,0.96578807,-0.05353971,0.9457869,3.2798882,3.8815904,-1.0877982
1251,2026-05-11 16:10:11.675031,0.96578807,-0.05353971,0.9457869,3.2798882,3.8815904,-1.0877982
1252,2026-05-11 16:10:11.677990,0.96578807,-0.05353971,0.9457869,3.2798882,3.8815904,-1.0877982
1253,2026-05-11 16:10:11.680666,0.96578807,-0.05353971,0.9457869,3.2798882,3.8815904,-1.0877982
1254,2026-05-11 16:10:11.683989,0.96578807,-0.05353971,0.9457869,3.2798882,3.8815904,-1.0877982
1255,2026-05-11 16:10:11.687008,0.96578807,-0.05353971,0.9457869,3.2798882,3.8815904,-1.0877982
1256,2026-05-11 16:10:11.689780,0.96578807,-0.05353971,0.9457869,3.2798882,3.8815904,-1.0877982
1257,2026-05-11 16:10:11.692492,0.96578807,-0.05353971,0.9457869,3.2798882,3.8815904,-1.0877982
1258,2026-05-11 16:10:11.695095,0.96578807,-0.05353971,0.9457869,3.2798882,3.8815904,-1.0877982
1259,2026-05-11 16:10:11.697820,0.96578807,-0.05353971,0.9457869,3.2798882,3.8815904,-1.0877982
1260,2026-05-11 16:10:11.701185,0.96578807,-0.05353971,0.9457869,3.2798882,3.8815904,-1.0877982
