id,timestamp,acc_x,acc_y,acc_z,gyro_x,gyro_y,gyro_z
1,2026-05-11 16:14:21.808955,-0.3886812,0.23080614,0.85364735,-0.05375614,0.37873647,-0.08109236
2,2026-05-11 16:14:21.818920,-0.41636577,0.23257454,0.81699884,-0.040011674,0.10445796,-0.056963183
3,2026-05-11 16:14:21.822036,-0.41636577,0.23257454,0.81699884,-0.040011674,0.10445796,-0.056963183
4,2026-05-11 16:14:21.824908,-0.41636577,0.23257454,0.81699884,-0.040011674,0.10445796,-0.056963183
5,2026-05-11 16:14:21.827594,-0.41636577,0.23257454,0.81699884,-0.040011674,0.10445796,-0.056963183
6,2026-05-11 16:14:21.830239,-0.41636577,0.23257454,0.81699884,-0.040011674,0.10445796,-0.056963183
7,2026-05-11 16:14:21.833211,-0.41636577,0.23257454,0.81699884,-0.040011674,0.10445796,-0.056963183
8,2026-05-11 16:14:21.835907,-0.41636577,0.23257454,0.81699884,-0.040011674,0.10445796,-0.056963183
9,2026-05-11 16:14:21.838865,-0.41636577,0.23257454,0.81699884,-0.040011674,0.10445796,-0.056963183
10,2026-05-11 16:14:21.841610,-0.41636577,0.23257454,0.81699884,-0.040011674,0.10445796,-0.056963183
11,2026-05-11 16:14:21.844276,-0.41636577,0.23257454,0.81699884,-0.040011674,0.10445796,-0.056963183
12,2026-05-11 16:14:21.846862,-0.41636577,0.23257454,0.81699884,-0.040011674,0.10445796,-0.056963183
13,2026-05-11 16:14:21.850246,-0.41636577,0.23257454,0.81699884,-0.040011674,0.10445796,-0.056963183
14,2026-05-11 16:14:21.853057,-0.41636577,0.23257454,0.81699884,-0.040011674,0.10445796,-0.056963183
15,2026-05-11 16:14:21.855723,-0.4251468,0.22275689,0.8208406,-0.040011674,0.10445796,-0.056963183
16,2026-05-11 16:14:21.858461,-0.4251468,0.22275689,0.8208406,-0.040011674,0.10445796,-0.056963183
17,2026-05-11 16:14:21.861031,-0.4251468,0.22275689,0.8208406,-0.040011674,0.10445796,-0.056963183
18,2026-05-11 16:14:21.863758,-0.4251468,0.22275689,0.8208406,-0.040011674,0.10445796,-0.056963183
19,2026-05-11 16:14:21.866897,-0.4251468,0.22275689,0.8208406,-0.040011674,0.10445796,-0.056963183
20,2026-05-11 16:14:21.869801,-0.4251468,0.22275689,0.8208406,-0.040011674,0.10445796,-0.056963183
21,2026-05-11 16:14:21.872410,-0.4251468,0.22275689,0.8208406,-0.040011674,0.10445796,-0.056963183
22,2026-05-11 16:14:21.875333,-0.4251468,0.22275689,0.8208406,-0.040011674,0.10445796,-0.056963183
23,2026-05-11 16:14:21.877982,-0.4251468,0.22275689,0.8208406,-0.040011674,0.10445796,-0.056963183
24,2026-05-11 16:14:21.880699,-0.4251468,0.22275689,0.8208406,-0.040011674,0.10445796,-0.056963183
25,2026-05-11 16:14:21.883652,-0.4251468,0.22275689,0.8208406,-0.040011674,0.10445796,-0.056963183
26,2026-05-11 16:14:21.886323,-0.4251468,0.22275689,0.8208406,-0.040011674,0.10445796,-0.056963183
27,2026-05-11 16:14:21.889084,-0.4251468,0.22275689,0.8208406,-0.040011674,0.10445796,-0.056963183
28,2026-05-11 16:14:21.891694,-0.4251468,0.22275689,0.8208406,-0.040011674,0.10445796,-0.056963183
29,2026-05-11 16:14:21.894513,-0.4251468,0.22275689,0.8208406,-0.040011674,0.10445796,-0.056963183
30,2026-05-11 16:14:21.897086,-0.4251468,0.22275689,0.8208406,-0.040011674,0.10445796,-0.056963183
31,2026-05-11 16:14:21.900146,-0.4251468,0.22275689,0.8208406,-0.040011674,0.10445796,-0.056963183
32,2026-05-11 16:14:21.903002,-0.4251468,0.22275689,0.8208406,-0.040011674,0.10445796,-0.056963183
33,2026-05-11 16:14:21.905697,-0.4251468,0.22275689,0.8208406,-0.040011674,0.10445796,-0.056963183
34,2026-05-11 16:14:21.908287,-0.4251468,0.22275689,0.8208406,-0.040011674,0.10445796,-0.056963183
35,2026-05-11 16:14:21.911181,-0.4251468,0.22275689,0.8208406,-0.040011674,0.10445796,-0.056963183
36,2026-05-11 16:14:21.913781,-0.4251468,0.22275689,0.8208406,-0.040011674,0.10445796,-0.056963183
37,2026-05-11 16:14:21.916762,-0.4251468,0.22275689,0.8208406,-0.040011674,0.10445796,-0.056963183
38,2026-05-11 16:14:21.919559,-0.4251468,0.22275689,0.8208406,-0.040011674,0.10445796,-0.056963183
39,2026-05-11 16:14:21.922338,-0.4251468,0.22275689,0.8208406,-0.040011674,0.10445796,-0.056963183
40,2026-05-11 16:14:21.924927,-0.4251468,0.22275689,0.8208406,-0.040011674,0.10445796,-0.056963183
41,2026-05-11 16:14:21.927546,-0.4251468,0.22275689,0.8208406,-0.040011674,0.10445796,-0.056963183
42,2026-05-11 16:14:21.930112,-0.4251468,0.22275689,0.8208406,-0.040011674,0.10445796,-0.056963183
43,2026-05-11 16:14:21.933674,-0.4251468,0.22275689,0.8208406,-0.040011674,0.10445796,-0.056963183
44,2026-05-11 16:14:21.936499,-0.4251468,0.22275689,0.8208406,-0.040011674,0.10445796,-0.056963183
45,2026-05-11 16:14:21.939063,-0.4251468,0.22275689,0.8208406,-0.040011674,0.10445796,-0.056963183
46,2026-05-11 16:14:21.941724,-0.4251468,0.22275689,0.8208406,-0.040011674,0.10445796,-0.056963183
47,2026-05-11 16:14:21.944316,-0.4251468,0.22275689,0.8208406,-0.040011674,0.10445796,-0.056963183
48,2026-05-11 16:14:21.947023,-0.4251468,0.22275689,0.8208406,-0.040011674,0.10445796,-0.056963183
49,2026-05-11 16:14:21.950040,-0.4251468,0.22275689,0.8208406,-0.040011674,0.10445796,-0.056963183
50,2026-05-11 16:14:21.952778,-0.4251468,0.22275689,0.8208406,-0.040011674,0.10445796,-0.056963183
51,2026-05-11 16:14:21.955377,-0.4251468,0.22275689,0.8208406,-0.034055736,-0.19532417,0.054825157
52,2026-05-11 16:14:21.958256,-0.4251468,0.22275689,0.8208406,-0.034055736,-0.19532417,0.054825157
53,2026-05-11 16:14:21.960861,-0.4251468,0.22275689,0.8208406,-0.034055736,-0.19532417,0.054825157
54,2026-05-11 16:14:21.963511,-0.4251468,0.22275689,0.8208406,-0.034055736,-0.19532417,0.054825157
55,2026-05-11 16:14:21.966292,-0.4251468,0.22275689,0.8208406,-0.034055736,-0.19532417,0.054825157
56,2026-05-11 16:14:21.968958,-0.4251468,0.22275689,0.8208406,-0.034055736,-0.19532417,0.054825157
57,2026-05-11 16:14:21.971564,-0.4251468,0.22275689,0.8208406,-0.034055736,-0.19532417,0.054825157
58,2026-05-11 16:14:21.974076,-0.4251468,0.22275689,0.8208406,-0.034055736,-0.19532417,0.054825157
59,2026-05-11 16:14:21.976604,-0.4251468,0.22275689,0.8208406,-0.034055736,-0.19532417,0.054825157
60,2026-05-11 16:14:21.979438,-0.4251468,0.22275689,0.8208406,-0.034055736,-0.19532417,0.054825157
61,2026-05-11 16:14:21.982123,-0.4251468,0.22275689,0.8208406,-0.034055736,-0.19532417,0.054825157
62,2026-05-11 16:14:21.985205,-0.4251468,0.22275689,0.8208406,-0.034055736,-0.19532417,0.054825157
63,2026-05-11 16:14:21.987939,-0.4251468,0.22275689,0.8208406,-0.034055736,-0.19532417,0.054825157
64,2026-05-11 16:14:21.990492,-0.4251468,0.22275689,0.8208406,-0.034055736,-0.19532417,0.054825157
65,2026-05-11 16:14:21.993120,-0.4251468,0.22275689,0.8208406,-0.034055736,-0.19532417,0.054825157
66,2026-05-11 16:14:21.995807,-0.4251468,0.22275689,0.8208406,-0.034055736,-0.19532417,0.054825157
67,2026-05-11 16:14:21.998685,-0.4251468,0.22275689,0.8208406,-0.034055736,-0.19532417,0.054825157
68,2026-05-11 16:14:22.001990,-0.4251468,0.22275689,0.8208406,-0.034055736,-0.19532417,0.054825157
69,2026-05-11 16:14:22.004604,-0.4251468,0.22275689,0.8208406,-0.034055736,-0.19532417,0.054825157
70,2026-05-11 16:14:22.007482,-0.4251468,0.22275689,0.8208406,-0.034055736,-0.19532417,0.054825157
71,2026-05-11 16:14:22.010197,-0.4251468,0.22275689,0.8208406,-0.034055736,-0.19532417,0.054825157
72,2026-05-11 16:14:22.013041,-0.4251468,0.22275689,0.8208406,-0.034055736,-0.19532417,0.054825157
73,2026-05-11 16:14:22.016633,-0.4251468,0.22275689,0.8208406,-0.034055736,-0.19532417,0.054825157
74,2026-05-11 16:14:22.019471,-0.4251468,0.22275689,0.8208406,-0.034055736,-0.19532417,0.054825157
75,2026-05-11 16:14:22.022107,-0.4251468,0.22275689,0.8208406,-0.034055736,-0.19532417,0.054825157
76,2026-05-11 16:14:22.024929,-0.4251468,0.22275689,0.8208406,-0.034055736,-0.19532417,0.054825157
77,2026-05-11 16:14:22.027506,-0.4251468,0.22275689,0.8208406,-0.034055736,-0.19532417,0.054825157
78,2026-05-11 16:14:22.030280,-0.4251468,0.22275689,0.8208406,-0.034055736,-0.19532417,0.054825157
79,2026-05-11 16:14:22.033106,-0.4251468,0.22275689,0.8208406,-0.034055736,-0.19532417,0.054825157
80,2026-05-11 16:14:22.035869,-0.4251468,0.22275689,0.8208406,-0.034055736,-0.19532417,0.054825157
81,2026-05-11 16:14:22.038480,-0.4251468,0.22275689,0.8208406,-0.034055736,-0.19532417,0.054825157
82,2026-05-11 16:14:22.040975,-0.4251468,0.22275689,0.8208406,-0.034055736,-0.19532417,0.054825157
83,2026-05-11 16:14:22.043569,-0.4251468,0.22275689,0.8208406,-0.034055736,-0.19532417,0.054825157
84,2026-05-11 16:14:22.046090,-0.4251468,0.22275689,0.8208406,-0.034055736,-0.19532417,0.054825157
85,2026-05-11 16:14:22.048869,-0.4251468,0.22275689,0.8208406,-0.034055736,-0.19532417,0.054825157
86,2026-05-11 16:14:22.051619,-0.4251468,0.22275689,0.8208406,-0.034055736,-0.19532417,0.054825157
87,2026-05-11 16:14:22.054188,-0.4251468,0.22275689,0.8208406,-0.034055736,-0.19532417,0.054825157
88,2026-05-11 16:14:22.056758,-0.4251468,0.22275689,0.8208406,-0.034055736,-0.19532417,0.054825157
89,2026-05-11 16:14:22.059490,-0.4251468,0.22275689,0.8208406,-0.034055736,-0.19532417,0.054825157
90,2026-05-11 16:14:22.062090,-0.4251468,0.22275689,0.8208406,-0.034055736,-0.19532417,0.054825157
91,2026-05-11 16:14:22.064646,-0.4251468,0.22275689,0.8208406,-0.034055736,-0.19532417,0.054825157
92,2026-05-11 16:14:22.067675,-0.4251468,0.22275689,0.8208406,-0.034055736,-0.19532417,0.054825157
93,2026-05-11 16:14:22.070404,-0.4251468,0.22275689,0.8208406,-0.034055736,-0.19532417,0.054825157
94,2026-05-11 16:14:22.073064,-0.4105727,0.23239161,0.8399271,-0.034055736,-0.19532417,0.054825157
95,2026-05-11 16:14:22.075753,-0.4105727,0.23239161,0.8399271,-0.034055736,-0.19532417,0.054825157
96,2026-05-11 16:14:22.078339,-0.4105727,0.23239161,0.8399271,-0.034055736,-0.19532417,0.054825157
97,2026-05-11 16:14:22.081140,-0.4105727,0.23239161,0.8399271,-0.034055736,-0.19532417,0.054825157
98,2026-05-11 16:14:22.084148,-0.4105727,0.23239161,0.8399271,-0.034055736,-0.19532417,0.054825157
99,2026-05-11 16:14:22.087127,-0.4105727,0.23239161,0.8399271,-0.034055736,-0.19532417,0.054825157
100,2026-05-11 16:14:22.089733,-0.4105727,0.23239161,0.8399271,-0.034055736,-0.19532417,0.054825157
101,2026-05-11 16:14:22.092317,-0.4105727,0.23239161,0.8399271,-0.034055736,-0.19532417,0.054825157
102,2026-05-11 16:14:22.094994,-0.4105727,0.23239161,0.8399271,-0.034055736,-0.19532417,0.054825157
103,2026-05-11 16:14:22.097537,-0.4105727,0.23239161,0.8399271,-0.034055736,-0.19532417,0.054825157
104,2026-05-11 16:14:22.100612,-0.4105727,0.23239161,0.8399271,-0.034055736,-0.19532417,0.054825157
105,2026-05-11 16:14:22.103366,-0.4105727,0.23239161,0.8399271,-0.034055736,-0.19532417,0.054825157
106,2026-05-11 16:14:22.105957,-0.4105727,0.23239161,0.8399271,-0.034055736,-0.19532417,0.054825157
107,2026-05-11 16:14:22.108557,-0.4105727,0.23239161,0.8399271,-0.034055736,-0.19532417,0.054825157
108,2026-05-11 16:14:22.111110,-0.4105727,0.23239161,0.8399271,-0.034055736,-0.19532417,0.054825157
109,2026-05-11 16:14:22.113686,-0.4105727,0.23239161,0.8399271,-0.034055736,-0.19532417,0.054825157
110,2026-05-11 16:14:22.116700,-0.4105727,0.23239161,0.8399271,-0.034055736,-0.19532417,0.054825157
111,2026-05-11 16:14:22.119371,-0.4105727,0.23239161,0.8399271,-0.034055736,-0.19532417,0.054825157
112,2026-05-11 16:14:22.121952,-0.4105727,0.23239161,0.8399271,-0.034055736,-0.19532417,0.054825157
113,2026-05-11 16:14:22.124805,-0.4105727,0.23239161,0.8399271,-0.034055736,-0.19532417,0.054825157
114,2026-05-11 16:14:22.127375,-0.4105727,0.23239161,0.8399271,-0.034055736,-0.19532417,0.054825157
115,2026-05-11 16:14:22.129941,-0.4105727,0.23239161,0.8399271,-0.034055736,-0.19532417,0.054825157
116,2026-05-11 16:14:22.133079,-0.4105727,0.23239161,0.8399271,-0.034055736,-0.19532417,0.054825157
117,2026-05-11 16:14:22.135760,-0.4105727,0.23239161,0.8399271,-0.034055736,-0.19532417,0.054825157
118,2026-05-11 16:14:22.138332,-0.4105727,0.23239161,0.8399271,-0.034055736,-0.19532417,0.054825157
119,2026-05-11 16:14:22.141037,-0.4105727,0.23239161,0.8399271,-0.034055736,-0.19532417,0.054825157
120,2026-05-11 16:14:22.143623,-0.4105727,0.23239161,0.8399271,-0.034055736,-0.19532417,0.054825157
121,2026-05-11 16:14:22.146179,-0.4105727,0.23239161,0.8399271,-0.034055736,-0.19532417,0.054825157
122,2026-05-11 16:14:22.149238,-0.4105727,0.23239161,0.8399271,-0.034055736,-0.19532417,0.054825157
123,2026-05-11 16:14:22.152023,-0.4105727,0.23239161,0.8399271,-0.034055736,-0.19532417,0.054825157
124,2026-05-11 16:14:22.154631,-0.4105727,0.23239161,0.8399271,-0.034055736,-0.19532417,0.054825157
125,2026-05-11 16:14:22.157199,-0.4105727,0.23239161,0.8399271,-0.034055736,-0.19532417,0.054825157
126,2026-05-11 16:14:22.159734,-0.4105727,0.23239161,0.8399271,-0.034055736,-0.19532417,0.054825157
127,2026-05-11 16:14:22.162456,-0.4105727,0.23239161,0.8399271,-0.034055736,-0.19532417,0.054825157
128,2026-05-11 16:14:22.165146,-0.4105727,0.23239161,0.8399271,-0.034055736,-0.19532417,0.054825157
129,2026-05-11 16:14:22.168153,-0.4105727,0.23239161,0.8399271,-0.034055736,-0.19532417,0.054825157
130,2026-05-11 16:14:22.170876,-0.4105727,0.23239161,0.8399271,-0.034055736,-0.19532417,0.054825157
131,2026-05-11 16:14:22.173463,-0.4105727,0.23239161,0.8399271,-0.034055736,-0.19532417,0.054825157
132,2026-05-11 16:14:22.176040,-0.4105727,0.23239161,0.8399271,-0.034055736,-0.19532417,0.054825157
133,2026-05-11 16:14:22.178729,-0.4105727,0.23239161,0.8399271,-0.034055736,-0.19532417,0.054825157
134,2026-05-11 16:14:22.181621,-0.3595332,0.23946518,0.92968833,-0.04016439,-0.32528573,0.1049161
135,2026-05-11 16:14:22.184708,-0.3595332,0.23946518,0.92968833,-0.04016439,-0.32528573,0.1049161
136,2026-05-11 16:14:22.187456,-0.3595332,0.23946518,0.92968833,-0.04016439,-0.32528573,0.1049161
137,2026-05-11 16:14:22.190210,-0.3595332,0.23946518,0.92968833,-0.04016439,-0.32528573,0.1049161
138,2026-05-11 16:14:22.192836,-0.3595332,0.23946518,0.92968833,-0.04016439,-0.32528573,0.1049161
139,2026-05-11 16:14:22.195492,-0.3595332,0.23946518,0.92968833,-0.04016439,-0.32528573,0.1049161
140,2026-05-11 16:14:22.198051,-0.3595332,0.23946518,0.92968833,-0.04016439,-0.32528573,0.1049161
141,2026-05-11 16:14:22.201163,-0.3595332,0.23946518,0.92968833,-0.04016439,-0.32528573,0.1049161
142,2026-05-11 16:14:22.203875,-0.3595332,0.23946518,0.92968833,-0.04016439,-0.32528573,0.1049161
143,2026-05-11 16:14:22.206418,-0.3595332,0.23946518,0.92968833,-0.04016439,-0.32528573,0.1049161
144,2026-05-11 16:14:22.208957,-0.3595332,0.23946518,0.92968833,-0.04016439,-0.32528573,0.1049161
145,2026-05-11 16:14:22.211658,-0.3595332,0.23946518,0.92968833,-0.04016439,-0.32528573,0.1049161
146,2026-05-11 16:14:22.214320,-0.3595332,0.23946518,0.92968833,-0.04016439,-0.32528573,0.1049161
147,2026-05-11 16:14:22.217348,-0.3595332,0.23946518,0.92968833,-0.04016439,-0.32528573,0.1049161
148,2026-05-11 16:14:22.220127,-0.3595332,0.23946518,0.92968833,-0.0030543262,-0.4642576,0.17302758
149,2026-05-11 16:14:22.222838,-0.3595332,0.23946518,0.92968833,-0.0030543262,-0.4642576,0.17302758
150,2026-05-11 16:14:22.225404,-0.3595332,0.23946518,0.92968833,-0.0030543262,-0.4642576,0.17302758
151,2026-05-11 16:14:22.228065,-0.3595332,0.23946518,0.92968833,-0.0030543262,-0.4642576,0.17302758
152,2026-05-11 16:14:22.230626,-0.3595332,0.23946518,0.92968833,-0.0030543262,-0.4642576,0.17302758
153,2026-05-11 16:14:22.233801,-0.3595332,0.23946518,0.92968833,-0.0030543262,-0.4642576,0.17302758
154,2026-05-11 16:14:22.236514,-0.3595332,0.23946518,0.92968833,-0.0030543262,-0.4642576,0.17302758
155,2026-05-11 16:14:22.239116,-0.3595332,0.23946518,0.92968833,-0.0030543262,-0.4642576,0.17302758
156,2026-05-11 16:14:22.241832,-0.3595332,0.23946518,0.92968833,-0.0030543262,-0.4642576,0.17302758
157,2026-05-11 16:14:22.244411,-0.3595332,0.23946518,0.92968833,-0.0030543262,-0.4642576,0.17302758
158,2026-05-11 16:14:22.247111,-0.3595332,0.23946518,0.92968833,-0.0030543262,-0.4642576,0.17302758
159,2026-05-11 16:14:22.249994,-0.3595332,0.23946518,0.92968833,-0.0030543262,-0.4642576,0.17302758
160,2026-05-11 16:14:22.252750,-0.3595332,0.23946518,0.92968833,-0.0030543262,-0.4642576,0.17302758
161,2026-05-11 16:14:22.255306,-0.3595332,0.23946518,0.92968833,-0.0030543262,-0.4642576,0.17302758
162,2026-05-11 16:14:22.257867,-0.3595332,0.23946518,0.92968833,-0.0030543262,-0.4642576,0.17302758
163,2026-05-11 16:14:22.260678,-0.3595332,0.23946518,0.92968833,-0.0030543262,-0.4642576,0.17302758
164,2026-05-11 16:14:22.263264,-0.3595332,0.23946518,0.92968833,-0.0030543262,-0.4642576,0.17302758
165,2026-05-11 16:14:22.266156,-0.3595332,0.23946518,0.92968833,-0.0030543262,-0.4642576,0.17302758
166,2026-05-11 16:14:22.268940,-0.3595332,0.23946518,0.92968833,-0.0030543262,-0.4642576,0.17302758
167,2026-05-11 16:14:22.271581,-0.3595332,0.23946518,0.92968833,-0.0030543262,-0.4642576,0.17302758
168,2026-05-11 16:14:22.274166,-0.3595332,0.23946518,0.92968833,-0.0030543262,-0.4642576,0.17302758
169,2026-05-11 16:14:22.276914,-0.3595332,0.23946518,0.92968833,-0.0030543262,-0.4642576,0.17302758
170,2026-05-11 16:14:22.279515,-0.3595332,0.23946518,0.92968833,-0.0030543262,-0.4642576,0.17302758
171,2026-05-11 16:14:22.282699,-0.29666364,0.24751444,0.9606658,0.06490443,-0.23915374,0.21899518
172,2026-05-11 16:14:22.285888,-0.29666364,0.24751444,0.9606658,0.06490443,-0.23915374,0.21899518
173,2026-05-11 16:14:22.288657,-0.29666364,0.24751444,0.9606658,0.06490443,-0.23915374,0.21899518
174,2026-05-11 16:14:22.291272,-0.29666364,0.24751444,0.9606658,0.06490443,-0.23915374,0.21899518
175,2026-05-11 16:14:22.293912,-0.29666364,0.24751444,0.9606658,0.06490443,-0.23915374,0.21899518
176,2026-05-11 16:14:22.296480,-0.29666364,0.24751444,0.9606658,0.06490443,-0.23915374,0.21899518
177,2026-05-11 16:14:22.299582,-0.29666364,0.24751444,0.9606658,0.06490443,-0.23915374,0.21899518
178,2026-05-11 16:14:22.302922,-0.29666364,0.24751444,0.9606658,0.06490443,-0.23915374,0.21899518
179,2026-05-11 16:14:22.305691,-0.29666364,0.24751444,0.9606658,0.06490443,-0.23915374,0.21899518
180,2026-05-11 16:14:22.308434,-0.29666364,0.24751444,0.9606658,0.06490443,-0.23915374,0.21899518
181,2026-05-11 16:14:22.311094,-0.29666364,0.24751444,0.9606658,0.06490443,-0.23915374,0.21899518
182,2026-05-11 16:14:22.313661,-0.29666364,0.24751444,0.9606658,0.06490443,-0.23915374,0.21899518
183,2026-05-11 16:14:22.316907,-0.29666364,0.24751444,0.9606658,0.06490443,-0.23915374,0.21899518
184,2026-05-11 16:14:22.319683,-0.29666364,0.24751444,0.9606658,0.06490443,-0.23915374,0.21899518
185,2026-05-11 16:14:22.322296,-0.29666364,0.24751444,0.9606658,0.06490443,-0.23915374,0.21899518
186,2026-05-11 16:14:22.325051,-0.29666364,0.24751444,0.9606658,0.06490443,-0.23915374,0.21899518
187,2026-05-11 16:14:22.327658,-0.29666364,0.24751444,0.9606658,0.06490443,-0.23915374,0.21899518
188,2026-05-11 16:14:22.330386,-0.29666364,0.24751444,0.9606658,0.06490443,-0.23915374,0.21899518
189,2026-05-11 16:14:22.333330,-0.29666364,0.24751444,0.9606658,0.06490443,-0.23915374,0.21899518
190,2026-05-11 16:14:22.336145,-0.29666364,0.24751444,0.9606658,0.06490443,-0.23915374,0.21899518
191,2026-05-11 16:14:22.338847,-0.29666364,0.24751444,0.9606658,0.06490443,-0.23915374,0.21899518
192,2026-05-11 16:14:22.341454,-0.29666364,0.24751444,0.9606658,0.06490443,-0.23915374,0.21899518
193,2026-05-11 16:14:22.344187,-0.29666364,0.24751444,0.9606658,0.06490443,-0.23915374,0.21899518
194,2026-05-11 16:14:22.346745,-0.29666364,0.24751444,0.9606658,0.06490443,-0.23915374,0.21899518
195,2026-05-11 16:14:22.349824,-0.29666364,0.24751444,0.9606658,0.06490443,-0.23915374,0.21899518
196,2026-05-11 16:14:22.352503,-0.29666364,0.24751444,0.9606658,0.06490443,-0.23915374,0.21899518
197,2026-05-11 16:14:22.355070,-0.29666364,0.24751444,0.9606658,0.06490443,-0.23915374,0.21899518
198,2026-05-11 16:14:22.357778,-0.29666364,0.24751444,0.9606658,0.06490443,-0.23915374,0.21899518
199,2026-05-11 16:14:22.360364,-0.29666364,0.24751444,0.9606658,0.06490443,-0.23915374,0.21899518
200,2026-05-11 16:14:22.362931,-0.29666364,0.24751444,0.9606658,0.06490443,-0.23915374,0.21899518
201,2026-05-11 16:14:22.365910,-0.29666364,0.24751444,0.9606658,0.06490443,-0.23915374,0.21899518
202,2026-05-11 16:14:22.368714,-0.29666364,0.24751444,0.9606658,0.06490443,-0.23915374,0.21899518
203,2026-05-11 16:14:22.371328,-0.29666364,0.24751444,0.9606658,0.06490443,-0.23915374,0.21899518
204,2026-05-11 16:14:22.374035,-0.29666364,0.24751444,0.9606658,0.06490443,-0.23915374,0.21899518
205,2026-05-11 16:14:22.376782,-0.24544115,0.25440508,0.9652392,0.06490443,-0.23915374,0.21899518
206,2026-05-11 16:14:22.379421,-0.24544115,0.25440508,0.9652392,0.06490443,-0.23915374,0.21899518
207,2026-05-11 16:14:22.382239,-0.24544115,0.25440508,0.9652392,0.06490443,-0.23915374,0.21899518
208,2026-05-11 16:14:22.385398,-0.24544115,0.25440508,0.9652392,0.06490443,-0.23915374,0.21899518
209,2026-05-11 16:14:22.388175,-0.24544115,0.25440508,0.9652392,0.06490443,-0.23915374,0.21899518
210,2026-05-11 16:14:22.390840,-0.24544115,0.25440508,0.9652392,0.06490443,-0.23915374,0.21899518
211,2026-05-11 16:14:22.393427,-0.24544115,0.25440508,0.9652392,0.06490443,-0.23915374,0.21899518
212,2026-05-11 16:14:22.396035,-0.24544115,0.25440508,0.9652392,0.06490443,-0.23915374,0.21899518
213,2026-05-11 16:14:22.398661,-0.24544115,0.25440508,0.9652392,0.06490443,-0.23915374,0.21899518
214,2026-05-11 16:14:22.402030,-0.24544115,0.25440508,0.9652392,0.06490443,-0.23915374,0.21899518
215,2026-05-11 16:14:22.404601,-0.24544115,0.25440508,0.9652392,0.06490443,-0.23915374,0.21899518
216,2026-05-11 16:14:22.407476,-0.24544115,0.25440508,0.9652392,0.06490443,-0.23915374,0.21899518
217,2026-05-11 16:14:22.410235,-0.24544115,0.25440508,0.9652392,0.06490443,-0.23915374,0.21899518
218,2026-05-11 16:14:22.413049,-0.24544115,0.25440508,0.9652392,0.06490443,-0.23915374,0.21899518
219,2026-05-11 16:14:22.416122,-0.24544115,0.25440508,0.9652392,0.06490443,-0.23915374,0.21899518
220,2026-05-11 16:14:22.418891,-0.24544115,0.25440508,0.9652392,0.06490443,-0.23915374,0.21899518
221,2026-05-11 16:14:22.421440,-0.24544115,0.25440508,0.9652392,0.06490443,-0.23915374,0.21899518
222,2026-05-11 16:14:22.424200,-0.24544115,0.25440508,0.9652392,0.06490443,-0.23915374,0.21899518
223,2026-05-11 16:14:22.426770,-0.24544115,0.25440508,0.9652392,0.06490443,-0.23915374,0.21899518
224,2026-05-11 16:14:22.429437,-0.24544115,0.25440508,0.9652392,0.06490443,-0.23915374,0.21899518
225,2026-05-11 16:14:22.432081,-0.24544115,0.25440508,0.9652392,0.06490443,-0.23915374,0.21899518
226,2026-05-11 16:14:22.435117,-0.24544115,0.25440508,0.9652392,0.06490443,-0.23915374,0.21899518
227,2026-05-11 16:14:22.437766,-0.24544115,0.25440508,0.9652392,0.06490443,-0.23915374,0.21899518
228,2026-05-11 16:14:22.440331,-0.24544115,0.25440508,0.9652392,0.06490443,-0.23915374,0.21899518
229,2026-05-11 16:14:22.442893,-0.24544115,0.25440508,0.9652392,0.06490443,-0.23915374,0.21899518
230,2026-05-11 16:14:22.445596,-0.24544115,0.25440508,0.9652392,0.06490443,-0.23915374,0.21899518
231,2026-05-11 16:14:22.448171,-0.24544115,0.25440508,0.9652392,0.06490443,-0.23915374,0.21899518
232,2026-05-11 16:14:22.451187,-0.24544115,0.25440508,0.9652392,0.06490443,-0.23915374,0.21899518
233,2026-05-11 16:14:22.453953,-0.24544115,0.25440508,0.9652392,0.06490443,-0.23915374,0.21899518
234,2026-05-11 16:14:22.456548,-0.24544115,0.25440508,0.9652392,0.06490443,-0.23915374,0.21899518
235,2026-05-11 16:14:22.459142,-0.24544115,0.25440508,0.9652392,0.06490443,-0.23915374,0.21899518
236,2026-05-11 16:14:22.476890,-0.24544115,0.25440508,0.9652392,0.06490443,-0.23915374,0.21899518
237,2026-05-11 16:14:22.488552,-0.24544115,0.25440508,0.9652392,0.06490443,-0.23915374,0.21899518
238,2026-05-11 16:14:22.497341,-0.6210728,0.63918364,1.0446341,0.2910773,1.996613,1.4509577
239,2026-05-11 16:14:22.500584,-0.6210728,0.63918364,1.0446341,0.2910773,1.996613,1.4509577
240,2026-05-11 16:14:22.503522,-0.6210728,0.63918364,1.0446341,0.38621956,2.0425806,1.7869335
241,2026-05-11 16:14:22.506195,-0.6210728,0.63918364,1.0446341,0.38621956,2.0425806,1.7869335
242,2026-05-11 16:14:22.508801,-0.6210728,0.63918364,1.0446341,0.38621956,2.0425806,1.7869335
243,2026-05-11 16:14:22.511586,-0.6210728,0.63918364,1.0446341,0.38621956,2.0425806,1.7869335
244,2026-05-11 16:14:22.514183,-0.6210728,0.63918364,1.0446341,0.38621956,2.0425806,1.7869335
245,2026-05-11 16:14:22.517357,-0.6210728,0.63918364,1.0446341,0.38621956,2.0425806,1.7869335
246,2026-05-11 16:14:22.520122,-0.6210728,0.63918364,1.0446341,0.38621956,2.0425806,1.7869335
247,2026-05-11 16:14:22.522683,-0.6210728,0.63918364,1.0446341,0.38621956,2.0425806,1.7869335
248,2026-05-11 16:14:22.525297,-0.6210728,0.63918364,1.0446341,0.38621956,2.0425806,1.7869335
249,2026-05-11 16:14:22.527922,-0.6210728,0.63918364,1.0446341,0.38621956,2.0425806,1.7869335
250,2026-05-11 16:14:22.530477,-0.6210728,0.63918364,1.0446341,0.38621956,2.0425806,1.7869335
251,2026-05-11 16:14:22.533551,-0.6210728,0.63918364,1.0446341,0.38621956,2.0425806,1.7869335
252,2026-05-11 16:14:22.536313,-0.6210728,0.63918364,1.0446341,0.38621956,2.0425806,1.7869335
253,2026-05-11 16:14:22.538909,-0.6210728,0.63918364,1.0446341,0.38621956,2.0425806,1.7869335
254,2026-05-11 16:14:22.541649,-0.6210728,0.63918364,1.0446341,0.38621956,2.0425806,1.7869335
255,2026-05-11 16:14:22.544236,-0.6210728,0.63918364,1.0446341,0.38621956,2.0425806,1.7869335
256,2026-05-11 16:14:22.546805,-0.6210728,0.63918364,1.0446341,0.38621956,2.0425806,1.7869335
257,2026-05-11 16:14:22.549938,-0.6210728,0.63918364,1.0446341,0.38621956,2.0425806,1.7869335
258,2026-05-11 16:14:22.552621,-0.6210728,0.63918364,1.0446341,0.38621956,2.0425806,1.7869335
259,2026-05-11 16:14:22.555198,-0.6210728,0.63918364,1.0446341,0.38621956,2.0425806,1.7869335
260,2026-05-11 16:14:22.557972,-0.6635753,0.6307075,1.0585374,0.38621956,2.0425806,1.7869335
261,2026-05-11 16:14:22.560767,-0.6635753,0.6307075,1.0585374,0.38621956,2.0425806,1.7869335
262,2026-05-11 16:14:22.563389,-0.6635753,0.6307075,1.0585374,0.38621956,2.0425806,1.7869335
263,2026-05-11 16:14:22.566524,-0.6635753,0.6307075,1.0585374,0.38621956,2.0425806,1.7869335
264,2026-05-11 16:14:22.569429,-0.6635753,0.6307075,1.0585374,0.38621956,2.0425806,1.7869335
265,2026-05-11 16:14:22.572062,-0.6635753,0.6307075,1.0585374,0.38621956,2.0425806,1.7869335
266,2026-05-11 16:14:22.574852,-0.6635753,0.6307075,1.0585374,0.38621956,2.0425806,1.7869335
267,2026-05-11 16:14:22.577599,-0.6635753,0.6307075,1.0585374,0.38621956,2.0425806,1.7869335
268,2026-05-11 16:14:22.580344,-0.6635753,0.6307075,1.0585374,0.38621956,2.0425806,1.7869335
269,2026-05-11 16:14:22.583162,-0.6635753,0.6307075,1.0585374,0.38621956,2.0425806,1.7869335
270,2026-05-11 16:14:22.586180,-0.6635753,0.6307075,1.0585374,0.38621956,2.0425806,1.7869335
271,2026-05-11 16:14:22.588820,-0.6635753,0.6307075,1.0585374,0.38621956,2.0425806,1.7869335
272,2026-05-11 16:14:22.591446,-0.6635753,0.6307075,1.0585374,0.38621956,2.0425806,1.7869335
273,2026-05-11 16:14:22.594244,-0.6635753,0.6307075,1.0585374,0.38621956,2.0425806,1.7869335
274,2026-05-11 16:14:22.596843,-0.6635753,0.6307075,1.0585374,0.38621956,2.0425806,1.7869335
275,2026-05-11 16:14:22.599887,-0.6635753,0.6307075,1.0585374,0.38621956,2.0425806,1.7869335
276,2026-05-11 16:14:22.602617,-0.6635753,0.6307075,1.0585374,0.38621956,2.0425806,1.7869335
277,2026-05-11 16:14:22.605177,-0.6635753,0.6307075,1.0585374,0.38621956,2.0425806,1.7869335
278,2026-05-11 16:14:22.607868,-0.6635753,0.6307075,1.0585374,0.38621956,2.0425806,1.7869335
279,2026-05-11 16:14:22.610467,-0.6635753,0.6307075,1.0585374,0.38621956,2.0425806,1.7869335
280,2026-05-11 16:14:22.613143,-0.6635753,0.6307075,1.0585374,0.38621956,2.0425806,1.7869335
281,2026-05-11 16:14:22.616004,-0.6635753,0.6307075,1.0585374,0.38621956,2.0425806,1.7869335
282,2026-05-11 16:14:22.619152,-0.6635753,0.6307075,1.0585374,0.38621956,2.0425806,1.7869335
283,2026-05-11 16:14:22.621761,-0.6635753,0.6307075,1.0585374,0.38621956,2.0425806,1.7869335
284,2026-05-11 16:14:22.624638,-0.6635753,0.6307075,1.0585374,0.38621956,2.0425806,1.7869335
285,2026-05-11 16:14:22.627385,-0.6635753,0.6307075,1.0585374,0.66782844,2.012801,2.235614
286,2026-05-11 16:14:22.630038,-0.6635753,0.6307075,1.0585374,0.66782844,2.012801,2.235614
287,2026-05-11 16:14:22.633138,-0.6635753,0.6307075,1.0585374,0.66782844,2.012801,2.235614
288,2026-05-11 16:14:22.636064,-0.6635753,0.6307075,1.0585374,0.66782844,2.012801,2.235614
289,2026-05-11 16:14:22.638688,-0.6635753,0.6307075,1.0585374,0.66782844,2.012801,2.235614
290,2026-05-11 16:14:22.641293,-0.6635753,0.6307075,1.0585374,0.66782844,2.012801,2.235614
291,2026-05-11 16:14:22.643918,-0.6635753,0.6307075,1.0585374,0.66782844,2.012801,2.235614
292,2026-05-11 16:14:22.646516,-0.6635753,0.6307075,1.0585374,0.66782844,2.012801,2.235614
293,2026-05-11 16:14:22.649451,-0.6635753,0.6307075,1.0585374,0.66782844,2.012801,2.235614
294,2026-05-11 16:14:22.652409,-0.6635753,0.6307075,1.0585374,0.66782844,2.012801,2.235614
295,2026-05-11 16:14:22.655136,-0.6635753,0.6307075,1.0585374,0.66782844,2.012801,2.235614
296,2026-05-11 16:14:22.657725,-0.6635753,0.6307075,1.0585374,0.66782844,2.012801,2.235614
297,2026-05-11 16:14:22.660336,-0.6635753,0.6307075,1.0585374,0.66782844,2.012801,2.235614
298,2026-05-11 16:14:22.662893,-0.6635753,0.6307075,1.0585374,0.66782844,2.012801,2.235614
299,2026-05-11 16:14:22.665922,-0.6635753,0.6307075,1.0585374,0.66782844,2.012801,2.235614
300,2026-05-11 16:14:22.668734,-0.6635753,0.6307075,1.0585374,0.66782844,2.012801,2.235614
301,2026-05-11 16:14:22.671305,-0.6635753,0.6307075,1.0585374,0.66782844,2.012801,2.235614
302,2026-05-11 16:14:22.674071,-0.6635753,0.6307075,1.0585374,0.66782844,2.012801,2.235614
303,2026-05-11 16:14:22.676625,-0.6635753,0.6307075,1.0585374,0.66782844,2.012801,2.235614
304,2026-05-11 16:14:22.679369,-0.6635753,0.6307075,1.0585374,0.66782844,2.012801,2.235614
305,2026-05-11 16:14:22.682114,-0.6635753,0.6307075,1.0585374,0.66782844,2.012801,2.235614
306,2026-05-11 16:14:22.685226,-0.6635753,0.6307075,1.0585374,0.66782844,2.012801,2.235614
307,2026-05-11 16:14:22.687871,-0.6635753,0.6307075,1.0585374,0.66782844,2.012801,2.235614
308,2026-05-11 16:14:22.690462,-0.6635753,0.6307075,1.0585374,0.66782844,2.012801,2.235614
309,2026-05-11 16:14:22.693237,-0.6635753,0.6307075,1.0585374,0.66782844,2.012801,2.235614
310,2026-05-11 16:14:22.695818,-0.6635753,0.6307075,1.0585374,0.66782844,2.012801,2.235614
311,2026-05-11 16:14:22.698737,-0.6635753,0.6307075,1.0585374,0.66782844,2.012801,2.235614
312,2026-05-11 16:14:22.701465,-0.6635753,0.6307075,1.0585374,0.66782844,2.012801,2.235614
313,2026-05-11 16:14:22.704091,-0.67010003,0.56143516,1.1537868,0.66782844,2.012801,2.235614
314,2026-05-11 16:14:22.706758,-0.67010003,0.56143516,1.1537868,0.66782844,2.012801,2.235614
315,2026-05-11 16:14:22.709323,-0.67010003,0.56143516,1.1537868,0.66782844,2.012801,2.235614
316,2026-05-11 16:14:22.711974,-0.67010003,0.56143516,1.1537868,0.66782844,2.012801,2.235614
317,2026-05-11 16:14:22.714539,-0.67010003,0.56143516,1.1537868,0.66782844,2.012801,2.235614
318,2026-05-11 16:14:22.717630,-0.67010003,0.56143516,1.1537868,0.66782844,2.012801,2.235614
319,2026-05-11 16:14:22.720277,-0.67010003,0.56143516,1.1537868,0.66782844,2.012801,2.235614
320,2026-05-11 16:14:22.723073,-0.67010003,0.56143516,1.1537868,0.66782844,2.012801,2.235614
321,2026-05-11 16:14:22.725866,-0.67010003,0.56143516,1.1537868,0.66782844,2.012801,2.235614
322,2026-05-11 16:14:22.728487,-0.67010003,0.56143516,1.1537868,0.66782844,2.012801,2.235614
323,2026-05-11 16:14:22.731437,-0.67010003,0.56143516,1.1537868,0.66782844,2.012801,2.235614
324,2026-05-11 16:14:22.734464,-0.67010003,0.56143516,1.1537868,0.66782844,2.012801,2.235614
325,2026-05-11 16:14:22.737255,-0.67010003,0.56143516,1.1537868,0.66782844,2.012801,2.235614
326,2026-05-11 16:14:22.739833,-0.67010003,0.56143516,1.1537868,0.66782844,2.012801,2.235614
327,2026-05-11 16:14:22.742553,-0.67010003,0.56143516,1.1537868,0.66782844,2.012801,2.235614
328,2026-05-11 16:14:22.745147,-0.67010003,0.56143516,1.1537868,0.66782844,2.012801,2.235614
329,2026-05-11 16:14:22.747700,-0.67010003,0.56143516,1.1537868,0.66782844,2.012801,2.235614
330,2026-05-11 16:14:22.750591,-0.67010003,0.56143516,1.1537868,0.66782844,2.012801,2.235614
331,2026-05-11 16:14:22.753232,-0.67010003,0.56143516,1.1537868,0.66782844,2.012801,2.235614
332,2026-05-11 16:14:22.755797,-0.67010003,0.56143516,1.1537868,0.66782844,2.012801,2.235614
333,2026-05-11 16:14:22.758402,-0.67010003,0.56143516,1.1537868,0.66782844,2.012801,2.235614
334,2026-05-11 16:14:22.760963,-0.67010003,0.56143516,1.1537868,0.66782844,2.012801,2.235614
335,2026-05-11 16:14:22.763510,-0.67010003,0.56143516,1.1537868,0.66782844,2.012801,2.235614
336,2026-05-11 16:14:22.766784,-0.67010003,0.56143516,1.1537868,0.66782844,2.012801,2.235614
337,2026-05-11 16:14:22.769492,-0.67010003,0.56143516,1.1537868,0.66782844,2.012801,2.235614
338,2026-05-11 16:14:22.772119,-0.67010003,0.56143516,1.1537868,0.66782844,2.012801,2.235614
339,2026-05-11 16:14:22.774745,-0.67010003,0.56143516,1.1537868,0.66782844,2.012801,2.235614
340,2026-05-11 16:14:22.777507,-0.67010003,0.56143516,1.1537868,0.66782844,2.012801,2.235614
341,2026-05-11 16:14:22.780164,-0.67010003,0.56143516,1.1537868,0.66782844,2.012801,2.235614
342,2026-05-11 16:14:22.782938,-0.67010003,0.56143516,1.1537868,0.66782844,2.012801,2.235614
343,2026-05-11 16:14:22.785802,-0.67010003,0.56143516,1.1537868,0.66782844,2.012801,2.235614
344,2026-05-11 16:14:22.788407,-0.67010003,0.56143516,1.1537868,0.66782844,2.012801,2.235614
345,2026-05-11 16:14:22.790990,-0.67010003,0.56143516,1.1537868,0.66782844,2.012801,2.235614
346,2026-05-11 16:14:22.793804,-0.67010003,0.56143516,1.1537868,0.66782844,2.012801,2.235614
347,2026-05-11 16:14:22.796572,-0.67010003,0.56143516,1.1537868,0.66782844,2.012801,2.235614
348,2026-05-11 16:14:22.799324,-0.67010003,0.56143516,1.1537868,0.66782844,2.012801,2.235614
349,2026-05-11 16:14:22.802074,-0.67010003,0.56143516,1.1537868,0.66782844,2.012801,2.235614
350,2026-05-11 16:14:22.804904,-0.67010003,0.56143516,1.1537868,0.66782844,2.012801,2.235614
351,2026-05-11 16:14:22.807525,-0.67010003,0.56143516,1.1537868,0.66782844,2.012801,2.235614
352,2026-05-11 16:14:22.810492,-0.43892804,0.4411233,1.252695,0.66782844,2.012801,2.235614
353,2026-05-11 16:14:22.813513,-0.43892804,0.4411233,1.252695,0.66782844,2.012801,2.235614
354,2026-05-11 16:14:22.817156,-0.43892804,0.4411233,1.252695,0.66782844,2.012801,2.235614
355,2026-05-11 16:14:22.820089,-0.43892804,0.4411233,1.252695,0.66782844,2.012801,2.235614
356,2026-05-11 16:14:22.823071,-0.43892804,0.4411233,1.252695,0.66782844,2.012801,2.235614
357,2026-05-11 16:14:22.825903,-0.43892804,0.4411233,1.252695,0.66782844,2.012801,2.235614
358,2026-05-11 16:14:22.828637,-0.43892804,0.4411233,1.252695,0.66782844,2.012801,2.235614
359,2026-05-11 16:14:22.831857,-0.43892804,0.4411233,1.252695,0.95615685,1.7093537,2.3883305
360,2026-05-11 16:14:22.835398,-0.43892804,0.4411233,1.252695,0.95615685,1.7093537,2.3883305
361,2026-05-11 16:14:22.838369,-0.43892804,0.4411233,1.252695,0.95615685,1.7093537,2.3883305
362,2026-05-11 16:14:22.841515,-0.43892804,0.4411233,1.252695,0.95615685,1.7093537,2.3883305
363,2026-05-11 16:14:22.844519,-0.43892804,0.4411233,1.252695,0.95615685,1.7093537,2.3883305
364,2026-05-11 16:14:22.847455,-0.43892804,0.4411233,1.252695,0.95615685,1.7093537,2.3883305
365,2026-05-11 16:14:22.850623,-0.43892804,0.4411233,1.252695,0.95615685,1.7093537,2.3883305
366,2026-05-11 16:14:22.853296,-0.43892804,0.4411233,1.252695,0.95615685,1.7093537,2.3883305
367,2026-05-11 16:14:22.856120,-0.43892804,0.4411233,1.252695,0.95615685,1.7093537,2.3883305
368,2026-05-11 16:14:22.858743,-0.43892804,0.4411233,1.252695,0.95615685,1.7093537,2.3883305
369,2026-05-11 16:14:22.861545,-0.43892804,0.4411233,1.252695,0.95615685,1.7093537,2.3883305
370,2026-05-11 16:14:22.864413,-0.43892804,0.4411233,1.252695,0.95615685,1.7093537,2.3883305
371,2026-05-11 16:14:22.867559,-0.43892804,0.4411233,1.252695,0.95615685,1.7093537,2.3883305
372,2026-05-11 16:14:22.870364,-0.43892804,0.4411233,1.252695,0.95615685,1.7093537,2.3883305
373,2026-05-11 16:14:22.873314,-0.43892804,0.4411233,1.252695,0.95615685,1.7093537,2.3883305
374,2026-05-11 16:14:22.875974,-0.43892804,0.4411233,1.252695,0.95615685,1.7093537,2.3883305
375,2026-05-11 16:14:22.878722,-0.43892804,0.4411233,1.252695,0.95615685,1.7093537,2.3883305
376,2026-05-11 16:14:22.881329,-0.43892804,0.4411233,1.252695,0.95615685,1.7093537,2.3883305
377,2026-05-11 16:14:22.884720,-0.43892804,0.4411233,1.252695,0.95615685,1.7093537,2.3883305
378,2026-05-11 16:14:22.887455,-0.43892804,0.4411233,1.252695,0.95615685,1.7093537,2.3883305
379,2026-05-11 16:14:22.890193,-0.43892804,0.4411233,1.252695,0.95615685,1.7093537,2.3883305
380,2026-05-11 16:14:22.892798,-0.43892804,0.4411233,1.252695,0.95615685,1.7093537,2.3883305
381,2026-05-11 16:14:22.895515,-0.43892804,0.4411233,1.252695,0.95615685,1.7093537,2.3883305
382,2026-05-11 16:14:22.898135,-0.43892804,0.4411233,1.252695,0.95615685,1.7093537,2.3883305
383,2026-05-11 16:14:22.901436,-0.43892804,0.4411233,1.252695,0.95615685,1.7093537,2.3883305
384,2026-05-11 16:14:22.904294,-0.43892804,0.4411233,1.252695,0.95615685,1.7093537,2.3883305
385,2026-05-11 16:14:22.906938,-0.43892804,0.4411233,1.252695,0.95615685,1.7093537,2.3883305
386,2026-05-11 16:14:22.909572,-0.43892804,0.4411233,1.252695,0.95615685,1.7093537,2.3883305
387,2026-05-11 16:14:22.912249,-0.43892804,0.4411233,1.252695,0.95615685,1.7093537,2.3883305
388,2026-05-11 16:14:22.914826,-0.43892804,0.4411233,1.252695,0.95615685,1.7093537,2.3883305
389,2026-05-11 16:14:22.918018,-0.43892804,0.4411233,1.252695,0.95615685,1.7093537,2.3883305
390,2026-05-11 16:14:22.920685,-0.43892804,0.4411233,1.252695,0.95615685,1.7093537,2.3883305
391,2026-05-11 16:14:22.923291,-0.43892804,0.4411233,1.252695,0.95615685,1.7093537,2.3883305
392,2026-05-11 16:14:22.926055,-0.43892804,0.4411233,1.252695,0.95615685,1.7093537,2.3883305
393,2026-05-11 16:14:22.928763,-0.43892804,0.4411233,1.252695,0.95615685,1.7093537,2.3883305
394,2026-05-11 16:14:22.931496,-0.43892804,0.4411233,1.252695,0.95615685,1.7093537,2.3883305
395,2026-05-11 16:14:22.934558,-0.30581054,0.38124177,1.2978806,0.95615685,1.7093537,2.3883305
396,2026-05-11 16:14:22.937292,-0.30581054,0.38124177,1.2978806,0.95615685,1.7093537,2.3883305
397,2026-05-11 16:14:22.939892,-0.30581054,0.38124177,1.2978806,0.95615685,1.7093537,2.3883305
398,2026-05-11 16:14:22.942591,-0.30581054,0.38124177,1.2978806,0.95615685,1.7093537,2.3883305
399,2026-05-11 16:14:22.945165,-0.30581054,0.38124177,1.2978806,0.95615685,1.7093537,2.3883305
400,2026-05-11 16:14:22.947734,-0.30581054,0.38124177,1.2978806,0.95615685,1.7093537,2.3883305
401,2026-05-11 16:14:22.951569,-0.30581054,0.38124177,1.2978806,0.95615685,1.7093537,2.3883305
402,2026-05-11 16:14:22.954312,-0.30581054,0.38124177,1.2978806,0.95615685,1.7093537,2.3883305
403,2026-05-11 16:14:22.956908,-0.30581054,0.38124177,1.2978806,0.95615685,1.7093537,2.3883305
404,2026-05-11 16:14:22.959628,-0.30581054,0.38124177,1.2978806,0.95615685,1.7093537,2.3883305
405,2026-05-11 16:14:22.962308,-0.30581054,0.38124177,1.2978806,0.95615685,1.7093537,2.3883305
406,2026-05-11 16:14:22.965072,-0.30581054,0.38124177,1.2978806,0.95615685,1.7093537,2.3883305
407,2026-05-11 16:14:22.968180,-0.30581054,0.38124177,1.2978806,0.95615685,1.7093537,2.3883305
408,2026-05-11 16:14:22.970892,-0.30581054,0.38124177,1.2978806,0.95615685,1.7093537,2.3883305
409,2026-05-11 16:14:22.973616,-0.30581054,0.38124177,1.2978806,0.95615685,1.7093537,2.3883305
410,2026-05-11 16:14:22.976358,-0.30581054,0.38124177,1.2978806,1.4176655,1.3283265,2.3237314
411,2026-05-11 16:14:22.979085,-0.30581054,0.38124177,1.2978806,1.4176655,1.3283265,2.3237314
412,2026-05-11 16:14:22.981861,-0.30581054,0.38124177,1.2978806,1.4176655,1.3283265,2.3237314
413,2026-05-11 16:14:22.984759,-0.30581054,0.38124177,1.2978806,1.4176655,1.3283265,2.3237314
414,2026-05-11 16:14:22.987360,-0.30581054,0.38124177,1.2978806,1.4176655,1.3283265,2.3237314
415,2026-05-11 16:14:22.989960,-0.30581054,0.38124177,1.2978806,1.4176655,1.3283265,2.3237314
416,2026-05-11 16:14:22.992508,-0.30581054,0.38124177,1.2978806,1.4176655,1.3283265,2.3237314
417,2026-05-11 16:14:22.995371,-0.30581054,0.38124177,1.2978806,1.4176655,1.3283265,2.3237314
418,2026-05-11 16:14:22.997982,-0.30581054,0.38124177,1.2978806,1.4176655,1.3283265,2.3237314
419,2026-05-11 16:14:23.001094,-0.30581054,0.38124177,1.2978806,1.4176655,1.3283265,2.3237314
420,2026-05-11 16:14:23.003876,-0.30581054,0.38124177,1.2978806,1.4176655,1.3283265,2.3237314
421,2026-05-11 16:14:23.006462,-0.30581054,0.38124177,1.2978806,1.4176655,1.3283265,2.3237314
422,2026-05-11 16:14:23.009311,-0.30581054,0.38124177,1.2978806,1.4176655,1.3283265,2.3237314
423,2026-05-11 16:14:23.011920,-0.30581054,0.38124177,1.2978806,1.4176655,1.3283265,2.3237314
424,2026-05-11 16:14:23.014509,-0.30581054,0.38124177,1.2978806,1.4176655,1.3283265,2.3237314
425,2026-05-11 16:14:23.017293,-0.30581054,0.38124177,1.2978806,1.4176655,1.3283265,2.3237314
426,2026-05-11 16:14:23.020005,-0.30581054,0.38124177,1.2978806,1.4176655,1.3283265,2.3237314
427,2026-05-11 16:14:23.022700,-0.30581054,0.38124177,1.2978806,1.4176655,1.3283265,2.3237314
428,2026-05-11 16:14:23.025246,-0.30581054,0.38124177,1.2978806,1.4176655,1.3283265,2.3237314
429,2026-05-11 16:14:23.027849,-0.30581054,0.38124177,1.2978806,1.4176655,1.3283265,2.3237314
430,2026-05-11 16:14:23.030665,-0.30581054,0.38124177,1.2978806,1.4176655,1.3283265,2.3237314
431,2026-05-11 16:14:23.033665,-0.30581054,0.38124177,1.2978806,1.4176655,1.3283265,2.3237314
432,2026-05-11 16:14:23.036475,-0.30581054,0.38124177,1.2978806,1.4176655,1.3283265,2.3237314
433,2026-05-11 16:14:23.039157,-0.30581054,0.38124177,1.2978806,1.4176655,1.3283265,2.3237314
434,2026-05-11 16:14:23.041711,-0.30581054,0.38124177,1.2978806,1.4176655,1.3283265,2.3237314
435,2026-05-11 16:14:23.044558,-0.30581054,0.38124177,1.2978806,1.4176655,1.3283265,2.3237314
436,2026-05-11 16:14:23.047162,-0.30581054,0.38124177,1.2978806,1.4176655,1.3283265,2.3237314
437,2026-05-11 16:14:23.050541,-0.30581054,0.38124177,1.2978806,1.4176655,1.3283265,2.3237314
438,2026-05-11 16:14:23.053494,-0.30581054,0.38124177,1.2978806,1.4176655,1.3283265,2.3237314
439,2026-05-11 16:14:23.056168,-0.30581054,0.38124177,1.2978806,1.4176655,1.3283265,2.3237314
440,2026-05-11 16:14:23.058765,-0.30581054,0.38124177,1.2978806,1.4176655,1.3283265,2.3237314
441,2026-05-11 16:14:23.061498,-0.30581054,0.38124177,1.2978806,1.4176655,1.3283265,2.3237314
442,2026-05-11 16:14:23.064068,-0.30581054,0.38124177,1.2978806,1.4176655,1.3283265,2.3237314
443,2026-05-11 16:14:23.066992,-0.30581054,0.38124177,1.2978806,1.4176655,1.3283265,2.3237314
444,2026-05-11 16:14:23.069886,-0.30581054,0.38124177,1.2978806,1.4176655,1.3283265,2.3237314
445,2026-05-11 16:14:23.072488,-0.30581054,0.38124177,1.2978806,1.4176655,1.3283265,2.3237314
446,2026-05-11 16:14:23.075071,-0.30581054,0.38124177,1.2978806,1.4176655,1.3283265,2.3237314
447,2026-05-11 16:14:23.077750,-0.30581054,0.38124177,1.2978806,1.4176655,1.3283265,2.3237314
448,2026-05-11 16:14:23.080333,-0.30581054,0.38124177,1.2978806,1.4176655,1.3283265,2.3237314
449,2026-05-11 16:14:23.083321,-0.30581054,0.38124177,1.2978806,1.4176655,1.3283265,2.3237314
450,2026-05-11 16:14:23.086495,-0.30581054,0.38124177,1.2978806,1.4176655,1.3283265,2.3237314
451,2026-05-11 16:14:23.089322,-0.30581054,0.38124177,1.2978806,1.4176655,1.3283265,2.3237314
452,2026-05-11 16:14:23.091938,-0.30581054,0.38124177,1.2978806,1.4176655,1.3283265,2.3237314
453,2026-05-11 16:14:23.094719,-0.30581054,0.38124177,1.2978806,1.4176655,1.3283265,2.3237314
454,2026-05-11 16:14:23.097305,-0.30581054,0.38124177,1.2978806,1.4176655,1.3283265,2.3237314
455,2026-05-11 16:14:23.100503,-0.30581054,0.38124177,1.2978806,1.4176655,1.3283265,2.3237314
456,2026-05-11 16:14:23.103504,-0.18159597,0.37953433,1.179581,1.4176655,1.3283265,2.3237314
457,2026-05-11 16:14:23.106386,-0.18159597,0.37953433,1.179581,1.4176655,1.3283265,2.3237314
458,2026-05-11 16:14:23.109021,-0.18159597,0.37953433,1.179581,1.4176655,1.3283265,2.3237314
459,2026-05-11 16:14:23.111793,-0.18159597,0.37953433,1.179581,1.4176655,1.3283265,2.3237314
460,2026-05-11 16:14:23.114524,-0.18159597,0.37953433,1.179581,1.4176655,1.3283265,2.3237314
461,2026-05-11 16:14:23.117734,-0.18159597,0.37953433,1.179581,1.4176655,1.3283265,2.3237314
462,2026-05-11 16:14:23.120702,-0.18159597,0.37953433,1.179581,1.4176655,1.3283265,2.3237314
463,2026-05-11 16:14:23.123414,-0.18159597,0.37953433,1.179581,1.4176655,1.3283265,2.3237314
464,2026-05-11 16:14:23.126020,-0.18159597,0.37953433,1.179581,1.4176655,1.3283265,2.3237314
465,2026-05-11 16:14:23.128895,-0.18159597,0.37953433,1.179581,1.4176655,1.3283265,2.3237314
466,2026-05-11 16:14:23.131711,-0.18159597,0.37953433,1.179581,1.7449366,1.3848315,2.1623104
467,2026-05-11 16:14:23.134686,-0.18159597,0.37953433,1.179581,1.7449366,1.3848315,2.1623104
468,2026-05-11 16:14:23.137347,-0.18159597,0.37953433,1.179581,1.7449366,1.3848315,2.1623104
469,2026-05-11 16:14:23.140057,-0.18159597,0.37953433,1.179581,1.7449366,1.3848315,2.1623104
470,2026-05-11 16:14:23.142646,-0.18159597,0.37953433,1.179581,1.7449366,1.3848315,2.1623104
471,2026-05-11 16:14:23.145553,-0.18159597,0.37953433,1.179581,1.7449366,1.3848315,2.1623104
472,2026-05-11 16:14:23.148110,-0.18159597,0.37953433,1.179581,1.7449366,1.3848315,2.1623104
473,2026-05-11 16:14:23.151318,-0.18159597,0.37953433,1.179581,1.7449366,1.3848315,2.1623104
474,2026-05-11 16:14:23.153954,-0.18159597,0.37953433,1.179581,1.7449366,1.3848315,2.1623104
475,2026-05-11 16:14:23.156611,-0.18159597,0.37953433,1.179581,1.7449366,1.3848315,2.1623104
476,2026-05-11 16:14:23.159176,-0.18159597,0.37953433,1.179581,1.7449366,1.3848315,2.1623104
477,2026-05-11 16:14:23.161868,-0.18159597,0.37953433,1.179581,1.7449366,1.3848315,2.1623104
478,2026-05-11 16:14:23.164374,-0.18159597,0.37953433,1.179581,1.7449366,1.3848315,2.1623104
479,2026-05-11 16:14:23.167357,-0.18159597,0.37953433,1.179581,1.7449366,1.3848315,2.1623104
480,2026-05-11 16:14:23.170152,-0.18159597,0.37953433,1.179581,1.7449366,1.3848315,2.1623104
481,2026-05-11 16:14:23.172772,-0.18159597,0.37953433,1.179581,1.7449366,1.3848315,2.1623104
482,2026-05-11 16:14:23.175648,-0.18159597,0.37953433,1.179581,1.7449366,1.3848315,2.1623104
483,2026-05-11 16:14:23.178307,-0.18159597,0.37953433,1.179581,1.7449366,1.3848315,2.1623104
484,2026-05-11 16:14:23.180933,-0.18159597,0.37953433,1.179581,1.7449366,1.3848315,2.1623104
485,2026-05-11 16:14:23.183997,-0.18842563,0.31050593,1.1934843,1.7449366,1.3848315,2.1623104
486,2026-05-11 16:14:23.186737,-0.18842563,0.31050593,1.1934843,1.7449366,1.3848315,2.1623104
487,2026-05-11 16:14:23.189331,-0.18842563,0.31050593,1.1934843,1.7449366,1.3848315,2.1623104
488,2026-05-11 16:14:23.192125,-0.18842563,0.31050593,1.1934843,1.7449366,1.3848315,2.1623104
489,2026-05-11 16:14:23.194754,-0.18842563,0.31050593,1.1934843,1.7449366,1.3848315,2.1623104
490,2026-05-11 16:14:23.197561,-0.18842563,0.31050593,1.1934843,1.7449366,1.3848315,2.1623104
491,2026-05-11 16:14:23.200653,-0.18842563,0.31050593,1.1934843,1.7449366,1.3848315,2.1623104
492,2026-05-11 16:14:23.203588,-0.18842563,0.31050593,1.1934843,1.7449366,1.3848315,2.1623104
493,2026-05-11 16:14:23.206296,-0.18842563,0.31050593,1.1934843,1.7449366,1.3848315,2.1623104
494,2026-05-11 16:14:23.208872,-0.18842563,0.31050593,1.1934843,1.7449366,1.3848315,2.1623104
495,2026-05-11 16:14:23.211608,-0.18842563,0.31050593,1.1934843,1.7449366,1.3848315,2.1623104
496,2026-05-11 16:14:23.214186,-0.18842563,0.31050593,1.1934843,1.7449366,1.3848315,2.1623104
497,2026-05-11 16:14:23.217272,-0.18842563,0.31050593,1.1934843,1.7449366,1.3848315,2.1623104
498,2026-05-11 16:14:23.220068,-0.18842563,0.31050593,1.1934843,1.7449366,1.3848315,2.1623104
499,2026-05-11 16:14:23.222689,-0.18842563,0.31050593,1.1934843,1.7449366,1.3848315,2.1623104
500,2026-05-11 16:14:23.225279,-0.18842563,0.31050593,1.1934843,1.7449366,1.3848315,2.1623104
501,2026-05-11 16:14:23.227990,-0.18842563,0.31050593,1.1934843,1.7449366,1.3848315,2.1623104
502,2026-05-11 16:14:23.230573,-0.18842563,0.31050593,1.1934843,1.7449366,1.3848315,2.1623104
503,2026-05-11 16:14:23.233771,-0.18842563,0.31050593,1.1934843,1.7449366,1.3848315,2.1623104
504,2026-05-11 16:14:23.236526,-0.18842563,0.31050593,1.1934843,1.7449366,1.3848315,2.1623104
505,2026-05-11 16:14:23.239152,-0.18842563,0.31050593,1.1934843,1.7449366,1.3848315,2.1623104
506,2026-05-11 16:14:23.241897,-0.18842563,0.31050593,1.1934843,1.7449366,1.3848315,2.1623104
507,2026-05-11 16:14:23.244491,-0.18842563,0.31050593,1.1934843,1.7449366,1.3848315,2.1623104
508,2026-05-11 16:14:23.247189,-0.18842563,0.31050593,1.1934843,1.7449366,1.3848315,2.1623104
509,2026-05-11 16:14:23.250234,-0.18842563,0.31050593,1.1934843,1.7449366,1.3848315,2.1623104
510,2026-05-11 16:14:23.253121,-0.18842563,0.31050593,1.1934843,1.7449366,1.3848315,2.1623104
511,2026-05-11 16:14:23.255721,-0.18842563,0.31050593,1.1934843,1.7449366,1.3848315,2.1623104
512,2026-05-11 16:14:23.258662,-0.2335502,0.3706314,1.0809777,2.5447118,1.2512047,1.89918
513,2026-05-11 16:14:23.261336,-0.2335502,0.3706314,1.0809777,2.5447118,1.2512047,1.89918
514,2026-05-11 16:14:23.264262,-0.2335502,0.3706314,1.0809777,2.5447118,1.2512047,1.89918
515,2026-05-11 16:14:23.267553,-0.2335502,0.3706314,1.0809777,2.5447118,1.2512047,1.89918
516,2026-05-11 16:14:23.270334,-0.2335502,0.3706314,1.0809777,2.5447118,1.2512047,1.89918
517,2026-05-11 16:14:23.272940,-0.2335502,0.3706314,1.0809777,2.5447118,1.2512047,1.89918
518,2026-05-11 16:14:23.275660,-0.2335502,0.3706314,1.0809777,2.5447118,1.2512047,1.89918
519,2026-05-11 16:14:23.278231,-0.2335502,0.3706314,1.0809777,2.5447118,1.2512047,1.89918
520,2026-05-11 16:14:23.281022,-0.2335502,0.3706314,1.0809777,2.5447118,1.2512047,1.89918
521,2026-05-11 16:14:23.284259,-0.2335502,0.3706314,1.0809777,2.5447118,1.2512047,1.89918
522,2026-05-11 16:14:23.286939,-0.2335502,0.3706314,1.0809777,2.5447118,1.2512047,1.89918
523,2026-05-11 16:14:23.289629,-0.2335502,0.3706314,1.0809777,2.5447118,1.2512047,1.89918
524,2026-05-11 16:14:23.292412,-0.2335502,0.3706314,1.0809777,2.5447118,1.2512047,1.89918
525,2026-05-11 16:14:23.295065,-0.2335502,0.3706314,1.0809777,2.5447118,1.2512047,1.89918
526,2026-05-11 16:14:23.297729,-0.2335502,0.3706314,1.0809777,2.5447118,1.2512047,1.89918
527,2026-05-11 16:14:23.300787,-0.2335502,0.3706314,1.0809777,2.5447118,1.2512047,1.89918
528,2026-05-11 16:14:23.303730,-0.33501956,0.21940304,0.87718534,3.034015,0.7828238,1.972942
529,2026-05-11 16:14:23.306539,-0.39392543,0.17775428,0.6149139,3.4993415,-0.2863431,2.1971295
530,2026-05-11 16:14:23.309249,-0.39392543,0.17775428,0.6149139,3.4993415,-0.2863431,2.1971295
531,2026-05-11 16:14:23.312003,-0.39392543,0.17775428,0.6149139,3.4993415,-0.2863431,2.1971295
532,2026-05-11 16:14:23.314684,-0.39392543,0.17775428,0.6149139,3.4993415,-0.2863431,2.1971295
533,2026-05-11 16:14:23.317529,-0.39392543,0.17775428,0.6149139,3.4993415,-0.2863431,2.1971295
534,2026-05-11 16:14:23.320299,-0.39392543,0.17775428,0.6149139,3.4993415,-0.2863431,2.1971295
535,2026-05-11 16:14:23.322893,-0.39392543,0.17775428,0.6149139,3.4993415,-0.2863431,2.1971295
536,2026-05-11 16:14:23.325470,-0.39392543,0.17775428,0.6149139,3.4993415,-0.2863431,2.1971295
537,2026-05-11 16:14:23.328165,-0.39392543,0.17775428,0.6149139,3.4993415,-0.2863431,2.1971295
538,2026-05-11 16:14:23.330734,-0.39392543,0.17775428,0.6149139,3.4993415,-0.2863431,2.1971295
539,2026-05-11 16:14:23.333918,-0.39392543,0.17775428,0.6149139,3.4993415,-0.2863431,2.1971295
540,2026-05-11 16:14:23.336661,-0.39392543,0.17775428,0.6149139,3.4993415,-0.2863431,2.1971295
541,2026-05-11 16:14:23.339278,-0.39392543,0.17775428,0.6149139,3.4993415,-0.2863431,2.1971295
542,2026-05-11 16:14:23.342078,-0.39392543,0.17775428,0.6149139,3.4993415,-0.2863431,2.1971295
543,2026-05-11 16:14:23.344757,-0.39392543,0.17775428,0.6149139,3.4993415,-0.2863431,2.1971295
544,2026-05-11 16:14:23.347581,-0.39392543,0.17775428,0.6149139,3.4993415,-0.2863431,2.1971295
545,2026-05-11 16:14:23.350540,-0.39392543,0.17775428,0.6149139,3.4993415,-0.2863431,2.1971295
546,2026-05-11 16:14:23.353263,-0.39392543,0.17775428,0.6149139,3.4993415,-0.2863431,2.1971295
547,2026-05-11 16:14:23.355985,-0.35495973,0.0028050416,0.46996644,3.9724567,-1.0074695,2.7423267
548,2026-05-11 16:14:23.358567,-0.35495973,0.0028050416,0.46996644,3.9724567,-1.0074695,2.7423267
549,2026-05-11 16:14:23.361368,-0.35495973,0.0028050416,0.46996644,3.9724567,-1.0074695,2.7423267
550,2026-05-11 16:14:23.364155,-0.35495973,0.0028050416,0.46996644,3.9724567,-1.0074695,2.7423267
551,2026-05-11 16:14:23.367180,-0.35495973,0.0028050416,0.46996644,3.9724567,-1.0074695,2.7423267
552,2026-05-11 16:14:23.369991,-0.35495973,0.0028050416,0.46996644,3.9724567,-1.0074695,2.7423267
553,2026-05-11 16:14:23.372732,-0.35495973,0.0028050416,0.46996644,4.114483,-1.1213958,2.9423852
554,2026-05-11 16:14:23.375526,-0.12756842,-0.06982114,0.2579419,4.114483,-1.1213958,2.9423852
555,2026-05-11 16:14:23.378339,-0.12756842,-0.06982114,0.2579419,4.114483,-1.1213958,2.9423852
556,2026-05-11 16:14:23.380955,-0.12756842,-0.06982114,0.2579419,4.114483,-1.1213958,2.9423852
557,2026-05-11 16:14:23.384031,-0.12756842,-0.06982114,0.2579419,4.114483,-1.1213958,2.9423852
558,2026-05-11 16:14:23.386761,-0.12756842,-0.06982114,0.2579419,4.2233696,-1.3130548,3.0428724
559,2026-05-11 16:14:23.389378,-0.12756842,-0.06982114,0.2579419,4.2233696,-1.3130548,3.0428724
560,2026-05-11 16:14:23.392168,-0.12756842,-0.06982114,0.2579419,4.2233696,-1.3130548,3.0428724
561,2026-05-11 16:14:23.394816,-0.12756842,-0.06982114,0.2579419,4.2233696,-1.3130548,3.0428724
562,2026-05-11 16:14:23.397590,-0.12756842,-0.06982114,0.2579419,4.2233696,-1.3130548,3.0428724
563,2026-05-11 16:14:23.400641,-0.12756842,-0.06982114,0.2579419,4.29087,-1.5180001,3.0466905
564,2026-05-11 16:14:23.403471,-0.12756842,-0.06982114,0.2579419,4.29087,-1.5180001,3.0466905
565,2026-05-11 16:14:23.406111,-0.12756842,-0.06982114,0.2579419,4.29087,-1.5180001,3.0466905
566,2026-05-11 16:14:23.408692,-0.12756842,-0.06982114,0.2579419,4.29087,-1.5180001,3.0466905
567,2026-05-11 16:14:23.411557,-0.12756842,-0.06982114,0.2579419,4.29087,-1.5180001,3.0466905
568,2026-05-11 16:14:23.414212,-0.12756842,-0.06982114,0.2579419,4.29087,-1.5180001,3.0466905
569,2026-05-11 16:14:23.417336,-0.12756842,-0.06982114,0.2579419,4.29087,-1.5180001,3.0466905
570,2026-05-11 16:14:23.420198,-0.12756842,-0.06982114,0.2579419,4.29087,-1.5180001,3.0466905
571,2026-05-11 16:14:23.422811,-0.12756842,-0.06982114,0.2579419,4.29087,-1.5180001,3.0466905
572,2026-05-11 16:14:23.425431,-0.12756842,-0.06982114,0.2579419,4.29087,-1.5180001,3.0466905
573,2026-05-11 16:14:23.428337,-0.12756842,-0.06982114,0.2579419,4.29087,-1.5180001,3.0466905
574,2026-05-11 16:14:23.431061,-0.12756842,-0.06982114,0.2579419,4.29087,-1.5180001,3.0466905
575,2026-05-11 16:14:23.434353,-0.12756842,-0.06982114,0.2579419,4.29087,-1.5180001,3.0466905
576,2026-05-11 16:14:23.437141,-0.12756842,-0.06982114,0.2579419,4.29087,-1.5180001,3.0466905
577,2026-05-11 16:14:23.439989,0.018049834,-0.08122425,0.19080381,4.29087,-1.5180001,3.0466905
578,2026-05-11 16:14:23.442745,0.018049834,-0.08122425,0.19080381,4.29087,-1.5180001,3.0466905
579,2026-05-11 16:14:23.445495,0.018049834,-0.08122425,0.19080381,4.29087,-1.5180001,3.0466905
580,2026-05-11 16:14:23.448494,0.018049834,-0.08122425,0.19080381,4.29087,-1.5180001,3.0466905
581,2026-05-11 16:14:23.451821,0.018049834,-0.08122425,0.19080381,4.29087,-1.5180001,3.0466905
582,2026-05-11 16:14:23.454548,0.018049834,-0.08122425,0.19080381,4.29087,-1.5180001,3.0466905
583,2026-05-11 16:14:23.457258,0.018049834,-0.08122425,0.19080381,4.29087,-1.5180001,3.0466905
584,2026-05-11 16:14:23.460201,0.122507155,-0.095493376,0.1595215,4.29087,-1.5180001,3.0466905
585,2026-05-11 16:14:23.463128,0.122507155,-0.095493376,0.1595215,4.29087,-1.5180001,3.0466905
586,2026-05-11 16:14:23.466113,0.122507155,-0.095493376,0.1595215,4.29087,-1.5180001,3.0466905
587,2026-05-11 16:14:23.469137,0.122507155,-0.095493376,0.1595215,4.29087,-1.5180001,3.0466905
588,2026-05-11 16:14:23.471885,0.122507155,-0.095493376,0.1595215,4.29087,-1.5180001,3.0466905
589,2026-05-11 16:14:23.474579,0.122507155,-0.095493376,0.1595215,4.29087,-1.5180001,3.0466905
590,2026-05-11 16:14:23.477308,0.122507155,-0.095493376,0.1595215,4.29087,-1.5180001,3.0466905
591,2026-05-11 16:14:23.479916,0.122507155,-0.095493376,0.1595215,4.29087,-1.5180001,3.0466905
592,2026-05-11 16:14:23.482840,0.122507155,-0.095493376,0.1595215,4.29087,-1.5180001,3.0466905
593,2026-05-11 16:14:23.485664,0.122507155,-0.095493376,0.1595215,4.29087,-1.5180001,3.0466905
594,2026-05-11 16:14:23.488294,0.122507155,-0.095493376,0.1595215,4.29087,-1.5180001,3.0466905
595,2026-05-11 16:14:23.490921,0.122507155,-0.095493376,0.1595215,4.29087,-1.5180001,3.0466905
596,2026-05-11 16:14:23.493567,0.122507155,-0.095493376,0.1595215,4.29087,-1.5180001,3.0466905
597,2026-05-11 16:14:23.496389,0.122507155,-0.095493376,0.1595215,4.2960625,-1.5407549,3.0208814
598,2026-05-11 16:14:23.499335,0.122507155,-0.095493376,0.1595215,4.2960625,-1.5407549,3.0208814
599,2026-05-11 16:14:23.502180,0.122507155,-0.095493376,0.1595215,4.2960625,-1.5407549,3.0208814
600,2026-05-11 16:14:23.504855,0.122507155,-0.095493376,0.1595215,4.2960625,-1.5407549,3.0208814
601,2026-05-11 16:14:23.507468,0.122507155,-0.095493376,0.1595215,4.2960625,-1.5407549,3.0208814
602,2026-05-11 16:14:23.510093,0.122507155,-0.095493376,0.1595215,4.2960625,-1.5407549,3.0208814
603,2026-05-11 16:14:23.512737,0.122507155,-0.095493376,0.1595215,4.2960625,-1.5407549,3.0208814
604,2026-05-11 16:14:23.515500,0.122507155,-0.095493376,0.1595215,4.2960625,-1.5407549,3.0208814
605,2026-05-11 16:14:23.518788,0.122507155,-0.095493376,0.1595215,4.2960625,-1.5407549,3.0208814
606,2026-05-11 16:14:23.521648,0.122507155,-0.095493376,0.1595215,4.2960625,-1.5407549,3.0208814
607,2026-05-11 16:14:23.524504,0.38386387,-0.13519081,0.04408794,4.1506767,-1.1180362,2.7994428
608,2026-05-11 16:14:23.527177,0.38386387,-0.13519081,0.04408794,4.1506767,-1.1180362,2.7994428
609,2026-05-11 16:14:23.529912,0.38386387,-0.13519081,0.04408794,4.1506767,-1.1180362,2.7994428
610,2026-05-11 16:14:23.532938,0.38386387,-0.13519081,0.04408794,4.1506767,-1.1180362,2.7994428
611,2026-05-11 16:14:23.548813,0.07049192,-0.3699606,-0.5054563,3.6089919,-0.12186762,2.2999077
612,2026-05-11 16:14:23.562483,0.07049192,-0.3699606,-0.5054563,3.1351132,-0.1956296,2.3160956
613,2026-05-11 16:14:23.566069,0.07049192,-0.3699606,-0.5054563,3.1351132,-0.1956296,2.3160956
614,2026-05-11 16:14:23.573336,0.07049192,-0.3699606,-0.5054563,3.1351132,-0.1956296,2.3160956
615,2026-05-11 16:14:23.576369,0.07049192,-0.3699606,-0.5054563,3.1351132,-0.1956296,2.3160956
616,2026-05-11 16:14:23.579004,0.07049192,-0.3699606,-0.5054563,3.1351132,-0.1956296,2.3160956
617,2026-05-11 16:14:23.581600,0.07049192,-0.3699606,-0.5054563,3.1351132,-0.1956296,2.3160956
618,2026-05-11 16:14:23.584745,0.07049192,-0.3699606,-0.5054563,3.1351132,-0.1956296,2.3160956
619,2026-05-11 16:14:23.587567,0.07049192,-0.3699606,-0.5054563,3.1351132,-0.1956296,2.3160956
620,2026-05-11 16:14:23.590228,0.07049192,-0.3699606,-0.5054563,3.1351132,-0.1956296,2.3160956
621,2026-05-11 16:14:23.592956,0.07049192,-0.3699606,-0.5054563,2.6528351,0.0018325958,2.5328
622,2026-05-11 16:14:23.595753,0.07049192,-0.3699606,-0.5054563,2.6528351,0.0018325958,2.5328
623,2026-05-11 16:14:23.598762,-0.101408355,-0.35764283,-0.42923236,2.6528351,0.0018325958,2.5328
624,2026-05-11 16:14:23.601766,-0.101408355,-0.35764283,-0.42923236,2.6528351,0.0018325958,2.5328
625,2026-05-11 16:14:23.604453,-0.101408355,-0.35764283,-0.42923236,2.6528351,0.0018325958,2.5328
626,2026-05-11 16:14:23.607125,-0.101408355,-0.35764283,-0.42923236,2.6528351,0.0018325958,2.5328
627,2026-05-11 16:14:23.609799,-0.101408355,-0.35764283,-0.42923236,2.6528351,0.0018325958,2.5328
628,2026-05-11 16:14:23.612407,-0.101408355,-0.35764283,-0.42923236,2.6528351,0.0018325958,2.5328
629,2026-05-11 16:14:23.615240,-0.101408355,-0.35764283,-0.42923236,2.6528351,0.0018325958,2.5328
630,2026-05-11 16:14:23.618146,-0.101408355,-0.35764283,-0.42923236,2.6528351,0.0018325958,2.5328
631,2026-05-11 16:14:23.620841,-0.101408355,-0.35764283,-0.42923236,2.6528351,0.0018325958,2.5328
632,2026-05-11 16:14:23.623450,-0.101408355,-0.35764283,-0.42923236,2.6528351,0.0018325958,2.5328
633,2026-05-11 16:14:23.626272,-0.101408355,-0.35764283,-0.42923236,2.6528351,0.0018325958,2.5328
634,2026-05-11 16:14:23.628892,-0.101408355,-0.35764283,-0.42923236,2.6528351,0.0018325958,2.5328
635,2026-05-11 16:14:23.631653,-0.11397006,-0.53082365,-0.45746574,2.6528351,0.0018325958,2.5328
636,2026-05-11 16:14:23.634644,-0.11397006,-0.53082365,-0.45746574,2.6528351,0.0018325958,2.5328
637,2026-05-11 16:14:23.637393,-0.11397006,-0.53082365,-0.45746574,2.6528351,0.0018325958,2.5328
638,2026-05-11 16:14:23.640066,-0.11397006,-0.53082365,-0.45746574,2.6528351,0.0018325958,2.5328
639,2026-05-11 16:14:23.642815,-0.11397006,-0.53082365,-0.45746574,2.6528351,0.0018325958,2.5328
640,2026-05-11 16:14:23.645577,-0.11397006,-0.53082365,-0.45746574,2.0744984,0.037110064,3.1607695
641,2026-05-11 16:14:23.648404,-0.017866896,-0.59832764,-0.43246427,2.0744984,0.037110064,3.1607695
642,2026-05-11 16:14:23.651624,-0.017866896,-0.59832764,-0.43246427,1.8432859,-0.15317446,3.5709655
643,2026-05-11 16:14:23.654557,0.234221,-0.71101713,-0.31196943,1.6392568,-0.35521814,4.0152173
644,2026-05-11 16:14:23.657196,0.234221,-0.71101713,-0.31196943,1.6392568,-0.35521814,4.0152173
645,2026-05-11 16:14:23.659792,0.234221,-0.71101713,-0.31196943,1.6392568,-0.35521814,4.0152173
646,2026-05-11 16:14:23.662458,0.31806734,-0.75047064,-0.26160064,1.4743233,-0.43478334,4.4532075
647,2026-05-11 16:14:23.665230,0.5096639,-0.7968148,-0.1879378,1.3159565,-0.2950479,5.18762
648,2026-05-11 16:14:23.668335,0.5096639,-0.7968148,-0.1879378,1.3159565,-0.2950479,5.18762
649,2026-05-11 16:14:23.671241,0.9818866,-0.6427204,-0.15641156,1.3245085,-0.57742035,5.5035906
650,2026-05-11 16:14:23.673857,0.9818866,-0.6427204,-0.15641156,1.3245085,-0.57742035,5.5035906
651,2026-05-11 16:14:23.676521,0.9818866,-0.6427204,-0.15641156,1.3245085,-0.57742035,5.5035906
652,2026-05-11 16:14:23.679247,0.9818866,-0.6427204,-0.15641156,1.3245085,-0.57742035,5.5035906
653,2026-05-11 16:14:23.681919,0.9818866,-0.6427204,-0.15641156,1.3245085,-0.57742035,5.5035906
654,2026-05-11 16:14:23.685226,0.9818866,-0.6427204,-0.15641156,1.3245085,-0.57742035,5.5035906
655,2026-05-11 16:14:23.687857,0.9818866,-0.6427204,-0.15641156,1.3245085,-0.57742035,5.5035906
656,2026-05-11 16:14:23.690481,0.9818866,-0.6427204,-0.15641156,1.3245085,-0.57742035,5.5035906
657,2026-05-11 16:14:23.693262,0.9818866,-0.6427204,-0.15641156,1.3245085,-0.57742035,5.5035906
658,2026-05-11 16:14:23.695881,0.9818866,-0.6427204,-0.15641156,1.3245085,-0.57742035,5.5035906
659,2026-05-11 16:14:23.698813,0.9818866,-0.6427204,-0.15641156,1.3245085,-0.57742035,5.5035906
660,2026-05-11 16:14:23.701827,0.9818866,-0.6427204,-0.15641156,1.3245085,-0.57742035,5.5035906
661,2026-05-11 16:14:23.704548,0.9818866,-0.6427204,-0.15641156,1.3245085,-0.57742035,5.5035906
662,2026-05-11 16:14:23.707344,0.9818866,-0.6427204,-0.15641156,1.3245085,-0.57742035,5.5035906
663,2026-05-11 16:14:23.709968,0.9818866,-0.6427204,-0.15641156,1.3245085,-0.57742035,5.5035906
664,2026-05-11 16:14:23.712596,0.9818866,-0.6427204,-0.15641156,1.3245085,-0.57742035,5.5035906
665,2026-05-11 16:14:23.715365,1.1576285,-0.67010003,-0.1879378,1.3245085,-0.57742035,5.5035906
666,2026-05-11 16:14:23.718476,1.1576285,-0.67010003,-0.1879378,1.3245085,-0.57742035,5.5035906
667,2026-05-11 16:14:23.721317,1.1576285,-0.67010003,-0.1879378,1.3245085,-0.57742035,5.5035906
668,2026-05-11 16:14:23.723885,1.1576285,-0.67010003,-0.1879378,1.3245085,-0.57742035,5.5035906
669,2026-05-11 16:14:23.726490,1.1576285,-0.67010003,-0.1879378,1.3245085,-0.57742035,5.5035906
670,2026-05-11 16:14:23.729107,1.1576285,-0.67010003,-0.1879378,1.3245085,-0.57742035,5.5035906
671,2026-05-11 16:14:23.731970,1.1576285,-0.67010003,-0.1879378,1.3245085,-0.57742035,5.5035906
672,2026-05-11 16:14:23.734830,1.1576285,-0.67010003,-0.1879378,1.3245085,-0.57742035,5.5035906
673,2026-05-11 16:14:23.737375,1.1576285,-0.67010003,-0.1879378,1.3245085,-0.57742035,5.5035906
674,2026-05-11 16:14:23.739902,1.1576285,-0.67010003,-0.1879378,1.3245085,-0.57742035,5.5035906
675,2026-05-11 16:14:23.742526,1.1576285,-0.67010003,-0.1879378,1.3245085,-0.57742035,5.5035906
676,2026-05-11 16:14:23.745018,1.1576285,-0.67010003,-0.1879378,1.3245085,-0.57742035,5.5035906
677,2026-05-11 16:14:23.747543,1.1576285,-0.67010003,-0.1879378,1.3245085,-0.57742035,5.5035906
678,2026-05-11 16:14:23.750554,1.1576285,-0.67010003,-0.1879378,1.3245085,-0.57742035,5.5035906
679,2026-05-11 16:14:23.753259,1.1576285,-0.67010003,-0.1879378,1.3245085,-0.57742035,5.5035906
680,2026-05-11 16:14:23.755926,1.1576285,-0.67010003,-0.1879378,1.3245085,-0.57742035,5.5035906
681,2026-05-11 16:14:23.758459,1.1576285,-0.67010003,-0.1879378,1.3245085,-0.57742035,5.5035906
682,2026-05-11 16:14:23.761060,1.1576285,-0.67010003,-0.1879378,1.3245085,-0.57742035,5.5035906
683,2026-05-11 16:14:23.763550,1.1576285,-0.67010003,-0.1879378,1.3245085,-0.57742035,5.5035906
684,2026-05-11 16:14:23.766522,1.1576285,-0.67010003,-0.1879378,1.3353515,-0.59040123,5.3582044
685,2026-05-11 16:14:23.769182,1.1576285,-0.67010003,-0.1879378,1.3353515,-0.59040123,5.3582044
686,2026-05-11 16:14:23.771715,1.1576285,-0.67010003,-0.1879378,1.3353515,-0.59040123,5.3582044
687,2026-05-11 16:14:23.774421,1.1576285,-0.67010003,-0.1879378,1.3353515,-0.59040123,5.3582044
688,2026-05-11 16:14:23.776992,1.1576285,-0.67010003,-0.1879378,1.3353515,-0.59040123,5.3582044
689,2026-05-11 16:14:23.779667,1.1576285,-0.67010003,-0.1879378,1.3353515,-0.59040123,5.3582044
690,2026-05-11 16:14:23.782641,1.1576285,-0.67010003,-0.1879378,1.3353515,-0.59040123,5.3582044
691,2026-05-11 16:14:23.785454,1.1576285,-0.67010003,-0.1879378,1.3353515,-0.59040123,5.3582044
692,2026-05-11 16:14:23.788107,1.1576285,-0.67010003,-0.1879378,1.3353515,-0.59040123,5.3582044
693,2026-05-11 16:14:23.790998,1.1576285,-0.67010003,-0.1879378,1.288773,-0.46822822,5.2568007
694,2026-05-11 16:14:23.793799,1.1576285,-0.67010003,-0.1879378,1.288773,-0.46822822,5.2568007
695,2026-05-11 16:14:23.796509,1.1576285,-0.67010003,-0.1879378,1.288773,-0.46822822,5.2568007
696,2026-05-11 16:14:23.799597,1.1576285,-0.67010003,-0.1879378,1.288773,-0.46822822,5.2568007
697,2026-05-11 16:14:23.802536,1.1576285,-0.67010003,-0.1879378,1.288773,-0.46822822,5.2568007
698,2026-05-11 16:14:23.805250,1.1576285,-0.67010003,-0.1879378,1.288773,-0.46822822,5.2568007
699,2026-05-11 16:14:23.808000,1.1576285,-0.67010003,-0.1879378,1.288773,-0.46822822,5.2568007
700,2026-05-11 16:14:23.811001,1.2056192,-0.7118708,-0.2613567,1.288773,-0.46822822,5.2568007
701,2026-05-11 16:14:23.813771,1.2056192,-0.7118708,-0.2613567,1.288773,-0.46822822,5.2568007
702,2026-05-11 16:14:23.816931,1.2056192,-0.7118708,-0.2613567,1.288773,-0.46822822,5.2568007
703,2026-05-11 16:14:23.819684,1.2056192,-0.7118708,-0.2613567,1.288773,-0.46822822,5.2568007
704,2026-05-11 16:14:23.822588,1.2011067,-0.73894554,-0.4021576,1.0375546,-0.31429017,5.128214
705,2026-05-11 16:14:23.825314,1.2011067,-0.73894554,-0.4021576,1.0375546,-0.31429017,5.128214
706,2026-05-11 16:14:23.827917,1.2011067,-0.73894554,-0.4021576,1.0375546,-0.31429017,5.128214
707,2026-05-11 16:14:23.830699,1.2011067,-0.73894554,-0.4021576,0.79351395,-0.3324634,5.148067
708,2026-05-11 16:14:23.833606,1.2011067,-0.73894554,-0.4021576,0.79351395,-0.3324634,5.148067
709,2026-05-11 16:14:23.836430,1.2011067,-0.73894554,-0.4021576,0.79351395,-0.3324634,5.148067
710,2026-05-11 16:14:23.839229,1.2011067,-0.73894554,-0.4021576,0.79351395,-0.3324634,5.148067
711,2026-05-11 16:14:23.841822,1.2011067,-0.73894554,-0.4021576,0.79351395,-0.3324634,5.148067
712,2026-05-11 16:14:23.844533,1.1493963,-0.76321524,-0.42045137,0.79351395,-0.3324634,5.148067
713,2026-05-11 16:14:23.847110,1.1493963,-0.76321524,-0.42045137,0.79351395,-0.3324634,5.148067
714,2026-05-11 16:14:23.850217,1.1493963,-0.76321524,-0.42045137,0.79351395,-0.3324634,5.148067
715,2026-05-11 16:14:23.853493,1.1493963,-0.76321524,-0.42045137,0.79351395,-0.3324634,5.148067
716,2026-05-11 16:14:23.856291,1.1493963,-0.76321524,-0.42045137,0.79351395,-0.3324634,5.148067
717,2026-05-11 16:14:23.858950,1.1493963,-0.76321524,-0.42045137,0.79351395,-0.3324634,5.148067
718,2026-05-11 16:14:23.861667,1.1493963,-0.76321524,-0.42045137,0.79351395,-0.3324634,5.148067
719,2026-05-11 16:14:23.864245,1.1493963,-0.76321524,-0.42045137,0.79351395,-0.3324634,5.148067
720,2026-05-11 16:14:23.867227,1.1493963,-0.76321524,-0.42045137,0.79351395,-0.3324634,5.148067
721,2026-05-11 16:14:23.870335,1.1493963,-0.76321524,-0.42045137,0.79351395,-0.3324634,5.148067
722,2026-05-11 16:14:23.873110,1.1493963,-0.76321524,-0.42045137,0.79351395,-0.3324634,5.148067
723,2026-05-11 16:14:23.875858,1.1493963,-0.76321524,-0.42045137,0.79351395,-0.3324634,5.148067
724,2026-05-11 16:14:23.878470,1.1493963,-0.76321524,-0.42045137,0.79351395,-0.3324634,5.148067
725,2026-05-11 16:14:23.881207,1.1493963,-0.76321524,-0.42045137,0.79351395,-0.3324634,5.148067
726,2026-05-11 16:14:23.884322,1.1493963,-0.76321524,-0.42045137,0.79351395,-0.3324634,5.148067
727,2026-05-11 16:14:23.887119,1.1493963,-0.76321524,-0.42045137,0.79351395,-0.3324634,5.148067
728,2026-05-11 16:14:23.889720,1.1493963,-0.76321524,-0.42045137,0.79351395,-0.3324634,5.148067
729,2026-05-11 16:14:23.892349,1.1493963,-0.76321524,-0.42045137,0.79351395,-0.3324634,5.148067
730,2026-05-11 16:14:23.895113,1.1493963,-0.76321524,-0.42045137,0.79351395,-0.3324634,5.148067
731,2026-05-11 16:14:23.897897,1.1493963,-0.76321524,-0.42045137,0.79351395,-0.3324634,5.148067
732,2026-05-11 16:14:23.900895,1.1493963,-0.76321524,-0.42045137,0.79351395,-0.3324634,5.148067
733,2026-05-11 16:14:23.903800,1.1493963,-0.76321524,-0.42045137,0.4109596,-0.2968805,5.3849297
734,2026-05-11 16:14:23.906467,1.1493963,-0.76321524,-0.42045137,0.4109596,-0.2968805,5.3849297
735,2026-05-11 16:14:23.909188,1.1493963,-0.76321524,-0.42045137,0.4109596,-0.2968805,5.3849297
736,2026-05-11 16:14:23.911884,1.1225046,-0.8570622,-0.36874104,0.4109596,-0.2968805,5.3849297
737,2026-05-11 16:14:23.914459,1.1225046,-0.8570622,-0.36874104,0.4109596,-0.2968805,5.3849297
738,2026-05-11 16:14:23.917477,1.1225046,-0.8570622,-0.36874104,0.4109596,-0.2968805,5.3849297
739,2026-05-11 16:14:23.920249,1.1225046,-0.8570622,-0.36874104,0.4109596,-0.2968805,5.3849297
740,2026-05-11 16:14:23.922957,1.1225046,-0.8570622,-0.36874104,0.4109596,-0.2968805,5.3849297
741,2026-05-11 16:14:23.925540,1.1225046,-0.8570622,-0.36874104,0.4109596,-0.2968805,5.3849297
742,2026-05-11 16:14:23.928456,1.1225046,-0.8570622,-0.36874104,0.4109596,-0.2968805,5.3849297
743,2026-05-11 16:14:23.931116,1.1225046,-0.8570622,-0.36874104,0.4109596,-0.2968805,5.3849297
744,2026-05-11 16:14:23.934233,1.1225046,-0.8570622,-0.36874104,0.4109596,-0.2968805,5.3849297
745,2026-05-11 16:14:23.937043,1.1225046,-0.8570622,-0.36874104,0.4109596,-0.2968805,5.3849297
746,2026-05-11 16:14:23.939803,1.1225046,-0.8570622,-0.36874104,0.4109596,-0.2968805,5.3849297
747,2026-05-11 16:14:23.942545,1.1225046,-0.8570622,-0.36874104,0.4109596,-0.2968805,5.3849297
748,2026-05-11 16:14:23.945209,1.1225046,-0.8570622,-0.36874104,0.4109596,-0.2968805,5.3849297
749,2026-05-11 16:14:23.947787,1.1225046,-0.8570622,-0.36874104,0.4109596,-0.2968805,5.3849297
750,2026-05-11 16:14:23.951061,1.1225046,-0.8570622,-0.36874104,0.4109596,-0.2968805,5.3849297
751,2026-05-11 16:14:23.954028,1.1225046,-0.8570622,-0.36874104,0.4109596,-0.2968805,5.3849297
752,2026-05-11 16:14:23.956756,1.1225046,-0.8570622,-0.36874104,0.14553864,-0.11346822,5.69021
753,2026-05-11 16:14:23.959469,1.1225046,-0.8570622,-0.36874104,0.14553864,-0.11346822,5.69021
754,2026-05-11 16:14:23.962058,1.1225046,-0.8570622,-0.36874104,0.14553864,-0.11346822,5.69021
755,2026-05-11 16:14:23.964713,1.1603116,-0.9591413,-0.19836523,0.14553864,-0.11346822,5.69021
756,2026-05-11 16:14:23.967724,1.1603116,-0.9591413,-0.19836523,0.14553864,-0.11346822,5.69021
757,2026-05-11 16:14:23.970591,1.1603116,-0.9591413,-0.19836523,0.14553864,-0.11346822,5.69021
758,2026-05-11 16:14:23.973283,1.1603116,-0.9591413,-0.19836523,0.14553864,-0.11346822,5.69021
759,2026-05-11 16:14:23.975907,1.1603116,-0.9591413,-0.19836523,0.14553864,-0.11346822,5.69021
760,2026-05-11 16:14:23.978579,1.1603116,-0.9591413,-0.19836523,0.14553864,-0.11346822,5.69021
761,2026-05-11 16:14:23.981225,1.1603116,-0.9591413,-0.19836523,0.14553864,-0.11346822,5.69021
762,2026-05-11 16:14:23.984163,1.1603116,-0.9591413,-0.19836523,0.14553864,-0.11346822,5.69021
763,2026-05-11 16:14:23.987054,1.1603116,-0.9591413,-0.19836523,0.14553864,-0.11346822,5.69021
764,2026-05-11 16:14:23.989679,1.1603116,-0.9591413,-0.19836523,0.14553864,-0.11346822,5.69021
765,2026-05-11 16:14:23.992273,1.1603116,-0.9591413,-0.19836523,0.14553864,-0.11346822,5.69021
766,2026-05-11 16:14:23.994873,1.1603116,-0.9591413,-0.19836523,0.14553864,-0.11346822,5.69021
767,2026-05-11 16:14:23.997456,1.1603116,-0.9591413,-0.19836523,0.14553864,-0.11346822,5.69021
768,2026-05-11 16:14:24.000474,1.1603116,-0.9591413,-0.19836523,0.14553864,-0.11346822,5.69021
769,2026-05-11 16:14:24.003644,1.1603116,-0.9591413,-0.19836523,0.14553864,-0.11346822,5.69021
770,2026-05-11 16:14:24.006573,1.2576344,-1.0004852,-0.1012864,0.05681047,0.07696902,5.8669024
771,2026-05-11 16:14:24.009344,1.2576344,-1.0004852,-0.1012864,0.05681047,0.07696902,5.8669024
772,2026-05-11 16:14:24.012171,1.4181316,-1.1024424,-0.04494165,0.05681047,0.07696902,5.8669024
773,2026-05-11 16:14:24.015133,1.4181316,-1.1024424,-0.04494165,0.05681047,0.07696902,5.8669024
774,2026-05-11 16:14:24.018520,1.4181316,-1.1024424,-0.04494165,0.05681047,0.07696902,5.8669024
775,2026-05-11 16:14:24.021600,1.4181316,-1.1024424,-0.04494165,0.05681047,0.07696902,5.8669024
776,2026-05-11 16:14:24.024315,1.4181316,-1.1024424,-0.04494165,0.05681047,0.07696902,5.8669024
777,2026-05-11 16:14:24.026974,1.4181316,-1.1024424,-0.04494165,0.05681047,0.07696902,5.8669024
778,2026-05-11 16:14:24.029690,1.4181316,-1.1024424,-0.04494165,0.05681047,0.07696902,5.8669024
779,2026-05-11 16:14:24.032931,1.4181316,-1.1024424,-0.04494165,0.05681047,0.07696902,5.8669024
780,2026-05-11 16:14:24.035763,1.4181316,-1.1024424,-0.04494165,0.05681047,0.07696902,5.8669024
781,2026-05-11 16:14:24.038554,1.4181316,-1.1024424,-0.04494165,-0.04932737,0.50426924,6.223037
782,2026-05-11 16:14:24.041178,1.4181316,-1.1024424,-0.04494165,-0.04932737,0.50426924,6.223037
783,2026-05-11 16:14:24.043924,1.4181316,-1.1024424,-0.04494165,-0.04932737,0.50426924,6.223037
784,2026-05-11 16:14:24.046519,1.4181316,-1.1024424,-0.04494165,-0.04932737,0.50426924,6.223037
785,2026-05-11 16:14:24.049521,1.4181316,-1.1024424,-0.04494165,-0.04932737,0.50426924,6.223037
786,2026-05-11 16:14:24.052556,1.4181316,-1.1024424,-0.04494165,-0.04932737,0.50426924,6.223037
787,2026-05-11 16:14:24.055199,1.4181316,-1.1024424,-0.04494165,-0.04932737,0.50426924,6.223037
788,2026-05-11 16:14:24.057807,1.4181316,-1.1024424,-0.04494165,-0.04932737,0.50426924,6.223037
789,2026-05-11 16:14:24.060693,1.4181316,-1.1024424,-0.04494165,-0.04932737,0.50426924,6.223037
790,2026-05-11 16:14:24.063316,1.4181316,-1.1024424,-0.04494165,-0.04932737,0.50426924,6.223037
791,2026-05-11 16:14:24.066349,1.6056424,-1.1403105,-0.09829842,-0.14935656,0.65393126,6.438367
792,2026-05-11 16:14:24.069281,1.6056424,-1.1403105,-0.09829842,-0.14935656,0.65393126,6.438367
793,2026-05-11 16:14:24.071893,1.6056424,-1.1403105,-0.09829842,-0.14935656,0.65393126,6.438367
794,2026-05-11 16:14:24.074682,1.6056424,-1.1403105,-0.09829842,-0.14935656,0.65393126,6.438367
795,2026-05-11 16:14:24.077446,1.6056424,-1.1403105,-0.09829842,-0.14935656,0.65393126,6.438367
796,2026-05-11 16:14:24.080127,1.6056424,-1.1403105,-0.09829842,-0.14935656,0.65393126,6.438367
797,2026-05-11 16:14:24.083297,1.6056424,-1.1403105,-0.09829842,-0.32543847,0.552833,6.584364
798,2026-05-11 16:14:24.086134,2.013776,-1.1537868,-0.18196183,-0.32543847,0.552833,6.584364
799,2026-05-11 16:14:24.088846,2.013776,-1.1537868,-0.18196183,-0.32543847,0.552833,6.584364
800,2026-05-11 16:14:24.091474,2.013776,-1.1537868,-0.18196183,-0.32543847,0.552833,6.584364
801,2026-05-11 16:14:24.094253,2.013776,-1.1537868,-0.18196183,-0.32543847,0.552833,6.584364
802,2026-05-11 16:14:24.096836,2.013776,-1.1537868,-0.18196183,-0.32543847,0.552833,6.584364
803,2026-05-11 16:14:24.099999,2.013776,-1.1537868,-0.18196183,-0.32543847,0.552833,6.584364
804,2026-05-11 16:14:24.102698,2.013776,-1.1537868,-0.18196183,-0.32543847,0.552833,6.584364
805,2026-05-11 16:14:24.105272,2.013776,-1.1537868,-0.18196183,-0.32543847,0.552833,6.584364
806,2026-05-11 16:14:24.108065,2.013776,-1.1537868,-0.18196183,-0.32543847,0.552833,6.584364
807,2026-05-11 16:14:24.110708,2.013776,-1.1537868,-0.18196183,-0.32543847,0.552833,6.584364
808,2026-05-11 16:14:24.113461,2.279889,-1.1690316,-0.2461729,-0.59895337,0.26374108,6.4440174
809,2026-05-11 16:14:24.116357,2.279889,-1.1690316,-0.2461729,-0.59895337,0.26374108,6.4440174
810,2026-05-11 16:14:24.119156,2.279889,-1.1690316,-0.2461729,-0.59895337,0.26374108,6.4440174
811,2026-05-11 16:14:24.121836,2.279889,-1.1690316,-0.2461729,-0.59895337,0.26374108,6.4440174
812,2026-05-11 16:14:24.124509,2.279889,-1.1690316,-0.2461729,-0.59895337,0.26374108,6.4440174
813,2026-05-11 16:14:24.127145,2.279889,-1.1690316,-0.2461729,-0.59895337,0.26374108,6.4440174
814,2026-05-11 16:14:24.129978,2.279889,-1.1690316,-0.2461729,-0.59895337,0.26374108,6.4440174
815,2026-05-11 16:14:24.133049,2.279889,-1.1690316,-0.2461729,-0.59895337,0.26374108,6.4440174
816,2026-05-11 16:14:24.135956,2.3200135,-1.1106745,-0.104152426,-1.5891659,-0.03313944,6.4774623
817,2026-05-11 16:14:24.138700,2.362333,-1.1067718,-0.04164877,-1.5891659,-0.03313944,6.4774623
818,2026-05-11 16:14:24.141441,2.362333,-1.1067718,-0.04164877,-1.5891659,-0.03313944,6.4774623
819,2026-05-11 16:14:24.144036,2.362333,-1.1067718,-0.04164877,-1.5891659,-0.03313944,6.4774623
820,2026-05-11 16:14:24.146845,2.362333,-1.1067718,-0.04164877,-1.5891659,-0.03313944,6.4774623
821,2026-05-11 16:14:24.149973,2.362333,-1.1067718,-0.04164877,-1.8716911,-0.070249505,6.6205573
822,2026-05-11 16:14:24.152719,2.362333,-1.1067718,-0.04164877,-1.8716911,-0.070249505,6.6205573
823,2026-05-11 16:14:24.155296,2.362333,-1.1067718,-0.04164877,-1.8716911,-0.070249505,6.6205573
824,2026-05-11 16:14:24.158076,2.362333,-1.1067718,-0.04164877,-1.8716911,-0.070249505,6.6205573
825,2026-05-11 16:14:24.160690,2.362333,-1.1067718,-0.04164877,-1.8716911,-0.070249505,6.6205573
826,2026-05-11 16:14:24.163479,2.362333,-1.1067718,-0.04164877,-1.8716911,-0.070249505,6.6205573
827,2026-05-11 16:14:24.166527,2.362333,-1.1067718,-0.04164877,-1.8716911,-0.070249505,6.6205573
828,2026-05-11 16:14:24.169696,2.362333,-1.1067718,-0.04164877,-1.8716911,-0.070249505,6.6205573
829,2026-05-11 16:14:24.172397,2.362333,-1.1067718,-0.04164877,-1.8716911,-0.070249505,6.6205573
830,2026-05-11 16:14:24.175238,2.362333,-1.1067718,-0.04164877,-1.8716911,-0.070249505,6.6205573
831,2026-05-11 16:14:24.177910,2.362333,-1.1067718,-0.04164877,-1.8716911,-0.070249505,6.6205573
832,2026-05-11 16:14:24.180581,2.362333,-1.1067718,-0.04164877,-1.8716911,-0.070249505,6.6205573
833,2026-05-11 16:14:24.183746,2.362333,-1.1067718,-0.04164877,-1.8716911,-0.070249505,6.6205573
834,2026-05-11 16:14:24.186881,2.362333,-1.1067718,-0.04164877,-1.8716911,-0.070249505,6.6205573
835,2026-05-11 16:14:24.189604,2.362333,-1.1067718,-0.04164877,-1.8716911,-0.070249505,6.6205573
836,2026-05-11 16:14:24.192335,2.362333,-1.1067718,-0.04164877,-1.8716911,-0.070249505,6.6205573
837,2026-05-11 16:14:24.195166,2.362333,-1.1067718,-0.04164877,-1.8716911,-0.070249505,6.6205573
838,2026-05-11 16:14:24.197920,2.362333,-1.1067718,-0.04164877,-1.8716911,-0.070249505,6.6205573
839,2026-05-11 16:14:24.200918,2.362333,-1.1067718,-0.04164877,-1.8716911,-0.070249505,6.6205573
840,2026-05-11 16:14:24.203774,2.678266,-0.97487396,0.049027253,-1.8716911,-0.070249505,6.6205573
841,2026-05-11 16:14:24.206505,2.678266,-0.97487396,0.049027253,-1.8716911,-0.070249505,6.6205573
842,2026-05-11 16:14:24.209264,2.678266,-0.97487396,0.049027253,-2.5595255,-0.09621128,6.9466066
843,2026-05-11 16:14:24.211968,2.678266,-0.97487396,0.049027253,-2.5595255,-0.09621128,6.9466066
844,2026-05-11 16:14:24.214686,2.8708382,-0.8706606,0.10659158,-3.4892623,0.22250767,7.000516
845,2026-05-11 16:14:24.217729,2.8708382,-0.8706606,0.10659158,-3.4892623,0.22250767,7.000516
846,2026-05-11 16:14:24.220757,2.8708382,-0.8706606,0.10659158,-3.4892623,0.22250767,7.000516
847,2026-05-11 16:14:24.223381,2.8708382,-0.8706606,0.10659158,-3.4892623,0.22250767,7.000516
848,2026-05-11 16:14:24.225951,2.8708382,-0.8706606,0.10659158,-3.4892623,0.22250767,7.000516
849,2026-05-11 16:14:24.228696,2.8708382,-0.8706606,0.10659158,-3.4892623,0.22250767,7.000516
850,2026-05-11 16:14:24.231542,2.8708382,-0.8706606,0.10659158,-3.4892623,0.22250767,7.000516
851,2026-05-11 16:14:24.234941,2.8708382,-0.8706606,0.10659158,-3.4892623,0.22250767,7.000516
852,2026-05-11 16:14:24.237748,2.8708382,-0.8706606,0.10659158,-3.4892623,0.22250767,7.000516
853,2026-05-11 16:14:24.240450,3.8613837,-0.26343,0.6072915,-3.4892623,0.22250767,7.000516
854,2026-05-11 16:14:24.243138,3.4313588,-0.59680307,0.30428603,-3.4892623,0.22250767,7.000516
855,2026-05-11 16:14:24.245724,3.4313588,-0.59680307,0.30428603,-3.4892623,0.22250767,7.000516
856,2026-05-11 16:14:24.248294,3.4313588,-0.59680307,0.30428603,-3.4892623,0.22250767,7.000516
857,2026-05-11 16:14:24.251614,3.4313588,-0.59680307,0.30428603,-3.4892623,0.22250767,7.000516
858,2026-05-11 16:14:24.254252,3.4313588,-0.59680307,0.30428603,-3.4892623,0.22250767,7.000516
859,2026-05-11 16:14:24.257046,3.4313588,-0.59680307,0.30428603,-3.4892623,0.22250767,7.000516
860,2026-05-11 16:14:24.259731,3.4313588,-0.59680307,0.30428603,-3.4892623,0.22250767,7.000516
861,2026-05-11 16:14:24.262496,3.4313588,-0.59680307,0.30428603,-3.4892623,0.22250767,7.000516
862,2026-05-11 16:14:24.265511,3.4313588,-0.59680307,0.30428603,-3.4892623,0.22250767,7.000516
863,2026-05-11 16:14:24.268561,3.4313588,-0.59680307,0.30428603,-3.4892623,0.22250767,7.000516
864,2026-05-11 16:14:24.271185,3.4313588,-0.59680307,0.30428603,-3.4892623,0.22250767,7.000516
865,2026-05-11 16:14:24.274073,3.4313588,-0.59680307,0.30428603,-3.4892623,0.22250767,7.000516
866,2026-05-11 16:14:24.276963,3.4313588,-0.59680307,0.30428603,-3.657403,0.3678936,6.293897
867,2026-05-11 16:14:24.279594,3.4313588,-0.59680307,0.30428603,-3.657403,0.3678936,6.293897
868,2026-05-11 16:14:24.282705,3.4313588,-0.59680307,0.30428603,-3.657403,0.3678936,6.293897
869,2026-05-11 16:14:24.285625,3.4313588,-0.59680307,0.30428603,-3.657403,0.3678936,6.293897
870,2026-05-11 16:14:24.288387,3.4313588,-0.59680307,0.30428603,-3.657403,0.3678936,6.293897
871,2026-05-11 16:14:24.291146,3.4313588,-0.59680307,0.30428603,-3.657403,0.3678936,6.293897
872,2026-05-11 16:14:24.293895,3.4313588,-0.59680307,0.30428603,-3.657403,0.3678936,6.293897
873,2026-05-11 16:14:24.296517,3.4313588,-0.59680307,0.30428603,-3.657403,0.3678936,6.293897
874,2026-05-11 16:14:24.299603,3.4313588,-0.59680307,0.30428603,-3.657403,0.3678936,6.293897
875,2026-05-11 16:14:24.302495,3.4313588,-0.59680307,0.30428603,-3.657403,0.3678936,6.293897
876,2026-05-11 16:14:24.305126,3.4313588,-0.59680307,0.30428603,-3.657403,0.3678936,6.293897
877,2026-05-11 16:14:24.307850,3.4313588,-0.59680307,0.30428603,-3.657403,0.3678936,6.293897
878,2026-05-11 16:14:24.310395,3.4313588,-0.59680307,0.30428603,-3.657403,0.3678936,6.293897
879,2026-05-11 16:14:24.313098,3.4313588,-0.59680307,0.30428603,-3.657403,0.3678936,6.293897
880,2026-05-11 16:14:24.315986,3.4313588,-0.59680307,0.30428603,-3.657403,0.3678936,6.293897
881,2026-05-11 16:14:24.318878,3.9289486,0.060491335,0.875234,-3.4245105,0.345597,5.435937
882,2026-05-11 16:14:24.321573,3.9289486,0.060491335,0.875234,-3.4245105,0.345597,5.435937
883,2026-05-11 16:14:24.324183,3.9289486,0.060491335,0.875234,-3.4245105,0.345597,5.435937
884,2026-05-11 16:14:24.327095,3.9289486,0.060491335,0.875234,-3.4245105,0.345597,5.435937
885,2026-05-11 16:14:24.329819,3.9289486,0.060491335,0.875234,-3.4245105,0.345597,5.435937
886,2026-05-11 16:14:24.333309,3.9289486,0.060491335,0.875234,-3.4245105,0.345597,5.435937
887,2026-05-11 16:14:24.336275,3.9289486,0.060491335,0.875234,-3.4245105,0.345597,5.435937
888,2026-05-11 16:14:24.339002,3.9289486,0.060491335,0.875234,-3.4245105,0.345597,5.435937
889,2026-05-11 16:14:24.341600,3.9289486,0.060491335,0.875234,-3.4245105,0.345597,5.435937
890,2026-05-11 16:14:24.344520,3.9289486,0.060491335,0.875234,-2.7605,0.23991732,4.3233986
891,2026-05-11 16:14:24.347320,3.9289486,0.060491335,0.875234,-2.7605,0.23991732,4.3233986
892,2026-05-11 16:14:24.350363,3.9289486,0.060491335,0.875234,-2.7605,0.23991732,4.3233986
893,2026-05-11 16:14:24.353194,3.9289486,0.060491335,0.875234,-2.7605,0.23991732,4.3233986
894,2026-05-11 16:14:24.355896,3.9289486,0.060491335,0.875234,-2.7605,0.23991732,4.3233986
895,2026-05-11 16:14:24.358501,3.9289486,0.060491335,0.875234,-2.7605,0.23991732,4.3233986
896,2026-05-11 16:14:24.361285,3.9289486,0.060491335,0.875234,-2.7605,0.23991732,4.3233986
897,2026-05-11 16:14:24.363904,3.9289486,0.060491335,0.875234,-2.7605,0.23991732,4.3233986
898,2026-05-11 16:14:24.366999,3.9289486,0.060491335,0.875234,-2.7605,0.23991732,4.3233986
899,2026-05-11 16:14:24.369722,3.9289486,0.060491335,0.875234,-2.7605,0.23991732,4.3233986
900,2026-05-11 16:14:24.372353,3.9289486,0.060491335,0.875234,-2.7605,0.23991732,4.3233986
901,2026-05-11 16:14:24.374955,3.9289486,0.060491335,0.875234,-2.7605,0.23991732,4.3233986
902,2026-05-11 16:14:24.377636,3.9289486,0.060491335,0.875234,-2.7605,0.23991732,4.3233986
903,2026-05-11 16:14:24.380324,3.9289486,0.060491335,0.875234,-2.7605,0.23991732,4.3233986
904,2026-05-11 16:14:24.383423,3.9289486,0.060491335,0.875234,-2.7605,0.23991732,4.3233986
905,2026-05-11 16:14:24.386304,3.7696712,0.36599696,1.1056743,-2.7605,0.23991732,4.3233986
906,2026-05-11 16:14:24.388905,3.7696712,0.36599696,1.1056743,-2.7605,0.23991732,4.3233986
907,2026-05-11 16:14:24.391763,3.7696712,0.36599696,1.1056743,-2.7605,0.23991732,4.3233986
908,2026-05-11 16:14:24.394481,3.5053263,0.5429585,1.2214737,-1.8455766,-0.070249505,3.2803464
909,2026-05-11 16:14:24.397211,3.263056,0.6671731,1.0723796,-0.91538155,-0.39629883,2.3823745
910,2026-05-11 16:14:24.400181,3.263056,0.6671731,1.0723796,-0.91538155,-0.39629883,2.3823745
911,2026-05-11 16:14:24.403269,3.263056,0.6671731,1.0723796,-0.91538155,-0.39629883,2.3823745
912,2026-05-11 16:14:24.405997,3.263056,0.6671731,1.0723796,-0.91538155,-0.39629883,2.3823745
913,2026-05-11 16:14:24.408591,3.263056,0.6671731,1.0723796,-0.91538155,-0.39629883,2.3823745
914,2026-05-11 16:14:24.411353,3.263056,0.6671731,1.0723796,-0.91538155,-0.39629883,2.3823745
915,2026-05-11 16:14:24.413942,3.263056,0.6671731,1.0723796,-0.91538155,-0.39629883,2.3823745
916,2026-05-11 16:14:24.417051,3.263056,0.6671731,1.0723796,-0.91538155,-0.39629883,2.3823745
917,2026-05-11 16:14:24.419796,3.263056,0.6671731,1.0723796,-0.91538155,-0.39629883,2.3823745
918,2026-05-11 16:14:24.422415,3.263056,0.6671731,1.0723796,-0.91538155,-0.39629883,2.3823745
919,2026-05-11 16:14:24.424993,3.263056,0.6671731,1.0723796,-0.91538155,-0.39629883,2.3823745
920,2026-05-11 16:14:24.427587,3.263056,0.6671731,1.0723796,-0.91538155,-0.39629883,2.3823745
921,2026-05-11 16:14:24.430411,2.9463305,0.61131614,0.67412466,-0.91538155,-0.39629883,2.3823745
922,2026-05-11 16:14:24.433428,2.9463305,0.61131614,0.67412466,-0.5523749,-0.24190263,1.6577356
923,2026-05-11 16:14:24.436215,2.9463305,0.61131614,0.67412466,-0.5713117,-0.1873829,1.2956452
924,2026-05-11 16:14:24.438876,2.9463305,0.61131614,0.67412466,-0.5713117,-0.1873829,1.2956452
925,2026-05-11 16:14:24.441459,2.9463305,0.61131614,0.67412466,-0.5713117,-0.1873829,1.2956452
926,2026-05-11 16:14:24.444266,2.9463305,0.61131614,0.67412466,-0.5713117,-0.1873829,1.2956452
927,2026-05-11 16:14:24.446893,2.677961,0.5307017,0.6977236,-0.5713117,-0.1873829,1.2956452
928,2026-05-11 16:14:24.449870,2.677961,0.5307017,0.6977236,-0.5713117,-0.1873829,1.2956452
929,2026-05-11 16:14:24.452557,2.677961,0.5307017,0.6977236,-0.5713117,-0.1873829,1.2956452
930,2026-05-11 16:14:24.455137,2.677961,0.5307017,0.6977236,-0.5713117,-0.1873829,1.2956452
931,2026-05-11 16:14:24.457961,2.677961,0.5307017,0.6977236,-0.5713117,-0.1873829,1.2956452
932,2026-05-11 16:14:24.460759,2.677961,0.5307017,0.6977236,-0.5713117,-0.1873829,1.2956452
933,2026-05-11 16:14:24.463443,2.677961,0.5307017,0.6977236,-0.5713117,-0.1873829,1.2956452
934,2026-05-11 16:14:24.466531,2.1348195,0.53990954,0.90639436,-0.13362677,-0.31764993,0.8671232
935,2026-05-11 16:14:24.469329,2.1348195,0.53990954,0.90639436,-0.13362677,-0.31764993,0.8671232
936,2026-05-11 16:14:24.471924,2.1348195,0.53990954,0.90639436,-0.13362677,-0.31764993,0.8671232
937,2026-05-11 16:14:24.474689,2.1348195,0.53990954,0.90639436,-0.13362677,-0.31764993,0.8671232
938,2026-05-11 16:14:24.477427,2.1348195,0.53990954,0.90639436,0.4549419,-0.18600847,0.7512115
939,2026-05-11 16:14:24.480023,2.1348195,0.53990954,0.90639436,0.4549419,-0.18600847,0.7512115
940,2026-05-11 16:14:24.483215,2.1348195,0.53990954,0.90639436,0.4549419,-0.18600847,0.7512115
941,2026-05-11 16:14:24.485967,2.1348195,0.53990954,0.90639436,0.4549419,-0.18600847,0.7512115
942,2026-05-11 16:14:24.488692,2.1348195,0.53990954,0.90639436,0.8437576,0.04795292,0.64766985
943,2026-05-11 16:14:24.491543,2.1278071,0.62131673,0.7619347,0.8437576,0.04795292,0.64766985
944,2026-05-11 16:14:24.494307,2.2005553,0.7301646,0.7245545,1.3319917,0.042913284,0.36453384
945,2026-05-11 16:14:24.496893,2.2005553,0.7301646,0.7245545,1.3319917,0.042913284,0.36453384
946,2026-05-11 16:14:24.500094,2.2005553,0.7301646,0.7245545,1.3319917,0.042913284,0.36453384
947,2026-05-11 16:14:24.502773,2.2005553,0.7301646,0.7245545,1.3319917,0.042913284,0.36453384
948,2026-05-11 16:14:24.505393,2.2005553,0.7301646,0.7245545,1.3319917,0.042913284,0.36453384
949,2026-05-11 16:14:24.508188,2.2005553,0.7301646,0.7245545,1.6653714,-0.040927973,0.106595986
950,2026-05-11 16:14:24.510776,2.2005553,0.7301646,0.7245545,1.6653714,-0.040927973,0.106595986
951,2026-05-11 16:14:24.513380,2.2005553,0.7301646,0.7245545,1.6653714,-0.040927973,0.106595986
952,2026-05-11 16:14:24.516299,2.2005553,0.7301646,0.7245545,1.6653714,-0.040927973,0.106595986
953,2026-05-11 16:14:24.519120,2.2005553,0.7301646,0.7245545,1.6653714,-0.040927973,0.106595986
954,2026-05-11 16:14:24.521720,2.2005553,0.7301646,0.7245545,1.6653714,-0.040927973,0.106595986
955,2026-05-11 16:14:24.524267,2.2005553,0.7301646,0.7245545,1.6653714,-0.040927973,0.106595986
956,2026-05-11 16:14:24.527099,2.2005553,0.7301646,0.7245545,1.6653714,-0.040927973,0.106595986
957,2026-05-11 16:14:24.529714,2.2005553,0.7301646,0.7245545,1.6653714,-0.040927973,0.106595986
958,2026-05-11 16:14:24.532661,2.2005553,0.7301646,0.7245545,1.6653714,-0.040927973,0.106595986
959,2026-05-11 16:14:24.535587,2.2208004,0.76882535,0.6152188,1.6653714,-0.040927973,0.106595986
960,2026-05-11 16:14:24.538268,2.2208004,0.76882535,0.6152188,1.6653714,-0.040927973,0.106595986
961,2026-05-11 16:14:24.540866,2.2208004,0.76882535,0.6152188,1.6653714,-0.040927973,0.106595986
962,2026-05-11 16:14:24.543634,2.2208004,0.76882535,0.6152188,1.6653714,-0.040927973,0.106595986
963,2026-05-11 16:14:24.546332,2.2208004,0.76882535,0.6152188,1.6653714,-0.040927973,0.106595986
964,2026-05-11 16:14:24.549195,2.2208004,0.76882535,0.6152188,1.6653714,-0.040927973,0.106595986
965,2026-05-11 16:14:24.552071,2.2208004,0.76882535,0.6152188,1.6653714,-0.040927973,0.106595986
966,2026-05-11 16:14:24.554705,2.2208004,0.76882535,0.6152188,1.6653714,-0.040927973,0.106595986
967,2026-05-11 16:14:24.557507,2.2208004,0.76882535,0.6152188,1.6653714,-0.040927973,0.106595986
968,2026-05-11 16:14:24.560264,2.2208004,0.76882535,0.6152188,1.6653714,-0.040927973,0.106595986
969,2026-05-11 16:14:24.563043,2.2208004,0.76882535,0.6152188,1.6653714,-0.040927973,0.106595986
970,2026-05-11 16:14:24.566125,2.2208004,0.76882535,0.6152188,1.6653714,-0.040927973,0.106595986
971,2026-05-11 16:14:24.568826,2.2208004,0.76882535,0.6152188,1.6653714,-0.040927973,0.106595986
972,2026-05-11 16:14:24.571429,2.2208004,0.76882535,0.6152188,1.6653714,-0.040927973,0.106595986
973,2026-05-11 16:14:24.574241,2.2208004,0.76882535,0.6152188,1.6653714,-0.040927973,0.106595986
974,2026-05-11 16:14:24.576882,2.2208004,0.76882535,0.6152188,1.6653714,-0.040927973,0.106595986
975,2026-05-11 16:14:24.579732,2.2208004,0.76882535,0.6152188,1.6653714,-0.040927973,0.106595986
976,2026-05-11 16:14:24.582876,2.2208004,0.76882535,0.6152188,1.6653714,-0.040927973,0.106595986
977,2026-05-11 16:14:24.585741,2.2208004,0.76882535,0.6152188,1.6653714,-0.040927973,0.106595986
978,2026-05-11 16:14:24.588371,2.2208004,0.76882535,0.6152188,1.6653714,-0.040927973,0.106595986
979,2026-05-11 16:14:24.590969,2.2208004,0.76882535,0.6152188,1.6653714,-0.040927973,0.106595986
980,2026-05-11 16:14:24.593785,2.2208004,0.76882535,0.6152188,1.6653714,-0.040927973,0.106595986
981,2026-05-11 16:14:24.596414,2.2208004,0.76882535,0.6152188,1.6653714,-0.040927973,0.106595986
982,2026-05-11 16:14:24.599399,2.2208004,0.76882535,0.6152188,2.1071796,-0.3013093,-0.5882632
983,2026-05-11 16:14:24.602471,2.2208004,0.76882535,0.6152188,2.1071796,-0.3013093,-0.5882632
984,2026-05-11 16:14:24.605397,2.1328683,0.8705996,0.2037314,2.1071796,-0.3013093,-0.5882632
985,2026-05-11 16:14:24.608076,2.1328683,0.8705996,0.2037314,2.1071796,-0.3013093,-0.5882632
986,2026-05-11 16:14:24.610692,2.1328683,0.8705996,0.2037314,2.1071796,-0.3013093,-0.5882632
987,2026-05-11 16:14:24.613516,2.0575593,0.9040772,0.05793021,2.0815234,-0.48456886,-0.96852684
988,2026-05-11 16:14:24.616676,2.0575593,0.9040772,0.05793021,2.0815234,-0.48456886,-0.96852684
989,2026-05-11 16:14:24.619452,2.0575593,0.9040772,0.05793021,2.0815234,-0.48456886,-0.96852684
990,2026-05-11 16:14:24.622248,2.0575593,0.9040772,0.05793021,2.0815234,-0.48456886,-0.96852684
991,2026-05-11 16:14:24.625007,2.0575593,0.9040772,0.05793021,2.0815234,-0.48456886,-0.96852684
992,2026-05-11 16:14:24.627696,2.0575593,0.9040772,0.05793021,2.0815234,-0.48456886,-0.96852684
993,2026-05-11 16:14:24.630479,2.0575593,0.9040772,0.05793021,2.0815234,-0.48456886,-0.96852684
994,2026-05-11 16:14:24.633402,2.0575593,0.9040772,0.05793021,2.0815234,-0.48456886,-0.96852684
995,2026-05-11 16:14:24.636276,2.0575593,0.9040772,0.05793021,2.0815234,-0.48456886,-0.96852684
996,2026-05-11 16:14:24.639083,2.0575593,0.9040772,0.05793021,2.0815234,-0.48456886,-0.96852684
997,2026-05-11 16:14:24.641867,2.0575593,0.9040772,0.05793021,2.0815234,-0.48456886,-0.96852684
998,2026-05-11 16:14:24.644471,2.0575593,0.9040772,0.05793021,2.0815234,-0.48456886,-0.96852684
999,2026-05-11 16:14:24.647267,2.0575593,0.9040772,0.05793021,2.0815234,-0.48456886,-0.96852684
1000,2026-05-11 16:14:24.650236,2.0575593,0.9040772,0.05793021,2.0815234,-0.48456886,-0.96852684
1001,2026-05-11 16:14:24.653017,2.0575593,0.9040772,0.05793021,2.0815234,-0.48456886,-0.96852684
1002,2026-05-11 16:14:24.655740,2.0575593,0.9040772,0.05793021,2.0815234,-0.48456886,-0.96852684
1003,2026-05-11 16:14:24.658468,2.0575593,0.9040772,0.05793021,2.0815234,-0.48456886,-0.96852684
1004,2026-05-11 16:14:24.661185,2.0575593,0.9040772,0.05793021,2.0815234,-0.48456886,-0.96852684
1005,2026-05-11 16:14:24.663899,2.0575593,0.9040772,0.05793021,2.0815234,-0.48456886,-0.96852684
1006,2026-05-11 16:14:24.666905,2.0575593,0.9040772,0.05793021,2.0815234,-0.48456886,-0.96852684
1007,2026-05-11 16:14:24.669781,2.0575593,0.9040772,0.05793021,2.0815234,-0.48456886,-0.96852684
1008,2026-05-11 16:14:24.672499,1.9105383,0.92999333,-0.122202255,1.8046486,-0.6200282,-1.3503176
1009,2026-05-11 16:14:24.675145,1.9105383,0.92999333,-0.122202255,1.8046486,-0.6200282,-1.3503176
1010,2026-05-11 16:14:24.677723,1.9105383,0.92999333,-0.122202255,1.8046486,-0.6200282,-1.3503176
1011,2026-05-11 16:14:24.680306,1.9105383,0.92999333,-0.122202255,1.8046486,-0.6200282,-1.3503176
1012,2026-05-11 16:14:24.683101,1.9105383,0.92999333,-0.122202255,1.8046486,-0.6200282,-1.3503176
1013,2026-05-11 16:14:24.686024,1.9105383,0.92999333,-0.122202255,1.8046486,-0.6200282,-1.3503176
1014,2026-05-11 16:14:24.688769,1.9105383,0.92999333,-0.122202255,1.8046486,-0.6200282,-1.3503176
1015,2026-05-11 16:14:24.691384,1.9105383,0.92999333,-0.122202255,1.8046486,-0.6200282,-1.3503176
1016,2026-05-11 16:14:24.694187,1.9105383,0.92999333,-0.122202255,1.8046486,-0.6200282,-1.3503176
1017,2026-05-11 16:14:24.696767,1.9105383,0.92999333,-0.122202255,1.8046486,-0.6200282,-1.3503176
1018,2026-05-11 16:14:24.700014,1.9105383,0.92999333,-0.122202255,1.8046486,-0.6200282,-1.3503176
1019,2026-05-11 16:14:24.702697,1.9105383,0.92999333,-0.122202255,1.8046486,-0.6200282,-1.3503176
1020,2026-05-11 16:14:24.705277,1.9105383,0.92999333,-0.122202255,1.8046486,-0.6200282,-1.3503176
1021,2026-05-11 16:14:24.708026,1.9105383,0.92999333,-0.122202255,1.8046486,-0.6200282,-1.3503176
1022,2026-05-11 16:14:24.710684,1.9105383,0.92999333,-0.122202255,1.8046486,-0.6200282,-1.3503176
1023,2026-05-11 16:14:24.713364,1.9105383,0.92999333,-0.122202255,1.8046486,-0.6200282,-1.3503176
1024,2026-05-11 16:14:24.732905,1.9105383,0.92999333,-0.122202255,1.8046486,-0.6200282,-1.3503176
1025,2026-05-11 16:14:24.743884,1.8473028,0.9070651,-0.19074284,1.8046486,-0.6200282,-1.3503176
1026,2026-05-11 16:14:24.751835,1.8473028,0.9070651,-0.19074284,1.342529,-0.5876524,-1.6653714
1027,2026-05-11 16:14:24.756303,1.8473028,0.9070651,-0.19074284,1.0079277,-0.4897612,-1.8359555
1028,2026-05-11 16:14:24.759538,1.800044,0.87755126,-0.22696446,1.0079277,-0.4897612,-1.8359555
1029,2026-05-11 16:14:24.762375,1.7132707,0.81797457,-0.24013597,0.2761111,-0.21502456,-2.1442897
1030,2026-05-11 16:14:24.765316,1.469354,0.6681487,-0.0102445,-0.23044892,-0.01038471,-2.3341162
1031,2026-05-11 16:14:24.768544,1.469354,0.6681487,-0.0102445,-0.23044892,-0.01038471,-2.3341162
1032,2026-05-11 16:14:24.771353,1.469354,0.6681487,-0.0102445,-0.5540548,0.23671028,-2.3970351
1033,2026-05-11 16:14:24.774155,1.469354,0.6681487,-0.0102445,-0.5540548,0.23671028,-2.3970351
1034,2026-05-11 16:14:24.776773,1.469354,0.6681487,-0.0102445,-0.5540548,0.23671028,-2.3970351
1035,2026-05-11 16:14:24.779590,1.469354,0.6681487,-0.0102445,-0.5540548,0.23671028,-2.3970351
1036,2026-05-11 16:14:24.782753,1.469354,0.6681487,-0.0102445,-0.5540548,0.23671028,-2.3970351
1037,2026-05-11 16:14:24.785572,1.469354,0.6681487,-0.0102445,-0.5540548,0.23671028,-2.3970351
1038,2026-05-11 16:14:24.788172,1.469354,0.6681487,-0.0102445,-0.5540548,0.23671028,-2.3970351
1039,2026-05-11 16:14:24.791078,1.469354,0.6681487,-0.0102445,-0.5540548,0.23671028,-2.3970351
1040,2026-05-11 16:14:24.794087,1.4159973,0.6341224,0.069760166,-0.5540548,0.23671028,-2.3970351
1041,2026-05-11 16:14:24.796765,1.4159973,0.6341224,0.069760166,-0.5540548,0.23671028,-2.3970351
1042,2026-05-11 16:14:24.799839,1.4159973,0.6341224,0.069760166,-0.5540548,0.23671028,-2.3970351
1043,2026-05-11 16:14:24.802695,1.4159973,0.6341224,0.069760166,-0.5540548,0.23671028,-2.3970351
1044,2026-05-11 16:14:24.805411,1.4159973,0.6341224,0.069760166,-0.5540548,0.23671028,-2.3970351
1045,2026-05-11 16:14:24.808184,1.4159973,0.6341224,0.069760166,-0.5540548,0.23671028,-2.3970351
1046,2026-05-11 16:14:24.810834,1.4159973,0.6341224,0.069760166,-0.5540548,0.23671028,-2.3970351
1047,2026-05-11 16:14:24.813534,1.4159973,0.6341224,0.069760166,-0.5540548,0.23671028,-2.3970351
1048,2026-05-11 16:14:24.816555,1.4159973,0.6341224,0.069760166,-0.5540548,0.23671028,-2.3970351
1049,2026-05-11 16:14:24.819413,1.4159973,0.6341224,0.069760166,-0.5540548,0.23671028,-2.3970351
1050,2026-05-11 16:14:24.822113,1.4159973,0.6341224,0.069760166,-0.5540548,0.23671028,-2.3970351
1051,2026-05-11 16:14:24.824750,1.4159973,0.6341224,0.069760166,-0.5540548,0.23671028,-2.3970351
1052,2026-05-11 16:14:24.827445,1.4159973,0.6341224,0.069760166,-0.5540548,0.23671028,-2.3970351
1053,2026-05-11 16:14:24.830011,1.4159973,0.6341224,0.069760166,-0.5540548,0.23671028,-2.3970351
1054,2026-05-11 16:14:24.832973,1.4159973,0.6341224,0.069760166,-0.5540548,0.23671028,-2.3970351
1055,2026-05-11 16:14:24.835942,1.4159973,0.6341224,0.069760166,-0.5540548,0.23671028,-2.3970351
1056,2026-05-11 16:14:24.838676,1.4159973,0.6341224,0.069760166,-0.5540548,0.23671028,-2.3970351
1057,2026-05-11 16:14:24.841441,1.4159973,0.6341224,0.069760166,-0.5540548,0.23671028,-2.3970351
1058,2026-05-11 16:14:24.844154,1.4159973,0.6341224,0.069760166,-0.6899723,0.43463063,-2.4497223
1059,2026-05-11 16:14:24.846740,1.4159973,0.6341224,0.069760166,-0.6899723,0.43463063,-2.4497223
1060,2026-05-11 16:14:24.849810,1.4159973,0.6341224,0.069760166,-0.6899723,0.43463063,-2.4497223
1061,2026-05-11 16:14:24.852558,1.4159973,0.6341224,0.069760166,-0.6899723,0.43463063,-2.4497223
1062,2026-05-11 16:14:24.855172,1.4159973,0.6341224,0.069760166,-0.6899723,0.43463063,-2.4497223
1063,2026-05-11 16:14:24.857913,1.4159973,0.6341224,0.069760166,-0.6899723,0.43463063,-2.4497223
1064,2026-05-11 16:14:24.860741,1.4159973,0.6341224,0.069760166,-0.6899723,0.43463063,-2.4497223
1065,2026-05-11 16:14:24.863355,1.4159973,0.6341224,0.069760166,-0.6899723,0.43463063,-2.4497223
1066,2026-05-11 16:14:24.866477,1.4159973,0.6341224,0.069760166,-0.6899723,0.43463063,-2.4497223
1067,2026-05-11 16:14:24.869430,1.4159973,0.6341224,0.069760166,-0.6899723,0.43463063,-2.4497223
1068,2026-05-11 16:14:24.872131,1.4159973,0.6341224,0.069760166,-0.6899723,0.43463063,-2.4497223
1069,2026-05-11 16:14:24.874858,1.4159973,0.6341224,0.069760166,-0.6899723,0.43463063,-2.4497223
1070,2026-05-11 16:14:24.877551,1.4159973,0.6341224,0.069760166,-0.6899723,0.43463063,-2.4497223
1071,2026-05-11 16:14:24.880322,1.4159973,0.6341224,0.069760166,-0.6899723,0.43463063,-2.4497223
1072,2026-05-11 16:14:24.883472,1.3811781,0.6050963,0.13915445,-0.6899723,0.43463063,-2.4497223
1073,2026-05-11 16:14:24.886384,1.3811781,0.6050963,0.13915445,-0.6899723,0.43463063,-2.4497223
1074,2026-05-11 16:14:24.889041,1.3811781,0.6050963,0.13915445,-0.6899723,0.43463063,-2.4497223
1075,2026-05-11 16:14:24.891874,1.3811781,0.6050963,0.13915445,-0.6899723,0.43463063,-2.4497223
1076,2026-05-11 16:14:24.894433,1.3811781,0.6050963,0.13915445,-0.6899723,0.43463063,-2.4497223
1077,2026-05-11 16:14:24.897121,1.3811781,0.6050963,0.13915445,-0.6899723,0.43463063,-2.4497223
1078,2026-05-11 16:14:24.900122,1.3811781,0.6050963,0.13915445,-0.6899723,0.43463063,-2.4497223
1079,2026-05-11 16:14:24.902885,1.3811781,0.6050963,0.13915445,-0.7228063,0.549626,-2.5462391
1080,2026-05-11 16:14:24.905455,1.3811781,0.6050963,0.13915445,-0.7228063,0.549626,-2.5462391
1081,2026-05-11 16:14:24.908152,1.3811781,0.6050963,0.13915445,-0.7228063,0.549626,-2.5462391
1082,2026-05-11 16:14:24.910694,1.3811781,0.6050963,0.13915445,-0.7228063,0.549626,-2.5462391
1083,2026-05-11 16:14:24.913208,1.3811781,0.6050963,0.13915445,-0.7228063,0.549626,-2.5462391
1084,2026-05-11 16:14:24.916023,1.3811781,0.6050963,0.13915445,-0.7228063,0.549626,-2.5462391
1085,2026-05-11 16:14:24.918859,1.3439199,0.5739969,0.2294646,-0.6372852,0.5873469,-2.7328584
1086,2026-05-11 16:14:24.921431,1.3439199,0.5739969,0.2294646,-0.6372852,0.5873469,-2.7328584
1087,2026-05-11 16:14:24.924068,1.3439199,0.5739969,0.2294646,-0.6372852,0.5873469,-2.7328584
1088,2026-05-11 16:14:24.926652,1.3439199,0.5739969,0.2294646,-0.6372852,0.5873469,-2.7328584
1089,2026-05-11 16:14:24.929153,1.3439199,0.5739969,0.2294646,-0.6372852,0.5873469,-2.7328584
1090,2026-05-11 16:14:24.932004,1.3439199,0.5739969,0.2294646,-0.6372852,0.5873469,-2.7328584
1091,2026-05-11 16:14:24.934961,1.3439199,0.5739969,0.2294646,-0.6372852,0.5873469,-2.7328584
1092,2026-05-11 16:14:24.937708,1.3439199,0.5739969,0.2294646,-0.6372852,0.5873469,-2.7328584
1093,2026-05-11 16:14:24.940486,1.3439199,0.5739969,0.2294646,-0.6372852,0.5873469,-2.7328584
1094,2026-05-11 16:14:24.943187,1.3439199,0.5739969,0.2294646,-0.5674938,0.56169057,-2.8467848
1095,2026-05-11 16:14:24.945956,1.3439199,0.5739969,0.2294646,-0.5674938,0.56169057,-2.8467848
1096,2026-05-11 16:14:24.949322,1.3439199,0.5739969,0.2294646,-0.5674938,0.56169057,-2.8467848
1097,2026-05-11 16:14:24.952465,1.3439199,0.5739969,0.2294646,-0.5674938,0.56169057,-2.8467848
1098,2026-05-11 16:14:24.955223,1.3439199,0.5739969,0.2294646,-0.5674938,0.56169057,-2.8467848
1099,2026-05-11 16:14:24.958135,1.3439199,0.5739969,0.2294646,-0.5674938,0.56169057,-2.8467848
1100,2026-05-11 16:14:24.960874,1.3439199,0.5739969,0.2294646,-0.5674938,0.56169057,-2.8467848
1101,2026-05-11 16:14:24.963627,1.3439199,0.5739969,0.2294646,-0.5674938,0.56169057,-2.8467848
1102,2026-05-11 16:14:24.967139,1.3439199,0.5739969,0.2294646,-0.5674938,0.56169057,-2.8467848
1103,2026-05-11 16:14:24.970043,1.3439199,0.5739969,0.2294646,-0.5674938,0.56169057,-2.8467848
1104,2026-05-11 16:14:24.972853,1.3439199,0.5739969,0.2294646,-0.5674938,0.56169057,-2.8467848
1105,2026-05-11 16:14:24.975583,1.3439199,0.5739969,0.2294646,-0.5674938,0.56169057,-2.8467848
1106,2026-05-11 16:14:24.978309,1.3370292,0.5174692,0.26678386,-0.5674938,0.56169057,-2.8467848
1107,2026-05-11 16:14:24.981208,1.3370292,0.5174692,0.26678386,-0.5674938,0.56169057,-2.8467848
1108,2026-05-11 16:14:24.984556,1.3370292,0.5174692,0.26678386,-0.5674938,0.56169057,-2.8467848
1109,2026-05-11 16:14:24.987357,1.3370292,0.5174692,0.26678386,-0.5674938,0.56169057,-2.8467848
1110,2026-05-11 16:14:24.989987,1.3370292,0.5174692,0.26678386,-0.5674938,0.56169057,-2.8467848
1111,2026-05-11 16:14:24.992820,1.3370292,0.5174692,0.26678386,-0.5674938,0.56169057,-2.8467848
1112,2026-05-11 16:14:24.995417,1.3370292,0.5174692,0.26678386,-0.5674938,0.56169057,-2.8467848
1113,2026-05-11 16:14:24.998133,1.3370292,0.5174692,0.26678386,-0.5674938,0.56169057,-2.8467848
1114,2026-05-11 16:14:25.001498,1.3370292,0.5174692,0.26678386,-0.5674938,0.56169057,-2.8467848
1115,2026-05-11 16:14:25.004502,1.3370292,0.5174692,0.26678386,-0.4289801,0.50518554,-3.1493158
1116,2026-05-11 16:14:25.007269,1.3370292,0.5174692,0.26678386,-0.4289801,0.50518554,-3.1493158
1117,2026-05-11 16:14:25.009966,1.3370292,0.5174692,0.26678386,-0.4289801,0.50518554,-3.1493158
1118,2026-05-11 16:14:25.012732,1.3370292,0.5174692,0.26678386,-0.4289801,0.50518554,-3.1493158
1119,2026-05-11 16:14:25.015989,1.2896484,0.4677712,0.30105415,-0.4289801,0.50518554,-3.1493158
1120,2026-05-11 16:14:25.019059,1.2896484,0.4677712,0.30105415,-0.4289801,0.50518554,-3.1493158
1121,2026-05-11 16:14:25.021758,1.2896484,0.4677712,0.30105415,-0.4289801,0.50518554,-3.1493158
1122,2026-05-11 16:14:25.024380,1.2896484,0.4677712,0.30105415,-0.4289801,0.50518554,-3.1493158
1123,2026-05-11 16:14:25.027233,1.2896484,0.4677712,0.30105415,-0.4289801,0.50518554,-3.1493158
1124,2026-05-11 16:14:25.029842,1.2896484,0.4677712,0.30105415,-0.4289801,0.50518554,-3.1493158
1125,2026-05-11 16:14:25.033233,1.2896484,0.4677712,0.30105415,-0.4289801,0.50518554,-3.1493158
1126,2026-05-11 16:14:25.036050,1.2896484,0.4677712,0.30105415,-0.4289801,0.50518554,-3.1493158
1127,2026-05-11 16:14:25.038747,1.2896484,0.4677712,0.30105415,-0.4289801,0.50518554,-3.1493158
1128,2026-05-11 16:14:25.041746,1.2896484,0.4677712,0.30105415,-0.4289801,0.50518554,-3.1493158
1129,2026-05-11 16:14:25.044481,1.2896484,0.4677712,0.30105415,-0.4289801,0.50518554,-3.1493158
1130,2026-05-11 16:14:25.047266,1.2896484,0.4677712,0.30105415,-0.4289801,0.50518554,-3.1493158
1131,2026-05-11 16:14:25.050314,1.2896484,0.4677712,0.30105415,-0.4289801,0.50518554,-3.1493158
1132,2026-05-11 16:14:25.053368,1.2896484,0.4677712,0.30105415,-0.33185256,0.43310347,-3.4373388
1133,2026-05-11 16:14:25.056215,1.2896484,0.4677712,0.30105415,-0.33185256,0.43310347,-3.4373388
1134,2026-05-11 16:14:25.058974,1.2896484,0.4677712,0.30105415,-0.33185256,0.43310347,-3.4373388
1135,2026-05-11 16:14:25.061714,1.2896484,0.4677712,0.30105415,-0.33185256,0.43310347,-3.4373388
1136,2026-05-11 16:14:25.064321,1.2896484,0.4677712,0.30105415,-0.33185256,0.43310347,-3.4373388
1137,2026-05-11 16:14:25.067682,1.2896484,0.4677712,0.30105415,-0.33185256,0.43310347,-3.4373388
1138,2026-05-11 16:14:25.070622,1.2896484,0.4677712,0.30105415,-0.33185256,0.43310347,-3.4373388
1139,2026-05-11 16:14:25.073364,1.1470791,0.4434405,0.5399705,-0.062002823,0.1366811,-3.7899606
1140,2026-05-11 16:14:25.076088,1.1470791,0.4434405,0.5399705,-0.062002823,0.1366811,-3.7899606
1141,2026-05-11 16:14:25.078880,1.1470791,0.4434405,0.5399705,-0.062002823,0.1366811,-3.7899606
1142,2026-05-11 16:14:25.081512,1.1470791,0.4434405,0.5399705,-0.062002823,0.1366811,-3.7899606
1143,2026-05-11 16:14:25.084835,1.1470791,0.4434405,0.5399705,-0.062002823,0.1366811,-3.7899606
1144,2026-05-11 16:14:25.087532,1.1470791,0.4434405,0.5399705,-0.062002823,0.1366811,-3.7899606
1145,2026-05-11 16:14:25.090281,1.1470791,0.4434405,0.5399705,-0.062002823,0.1366811,-3.7899606
1146,2026-05-11 16:14:25.093030,1.1470791,0.4434405,0.5399705,-0.062002823,0.1366811,-3.7899606
1147,2026-05-11 16:14:25.095862,1.1470791,0.4434405,0.5399705,-0.062002823,0.1366811,-3.7899606
1148,2026-05-11 16:14:25.099028,1.1470791,0.4434405,0.5399705,-0.062002823,0.1366811,-3.7899606
1149,2026-05-11 16:14:25.102445,1.1640923,0.42593947,0.80187607,-0.062002823,0.1366811,-3.7899606
1150,2026-05-11 16:14:25.105150,1.1640923,0.42593947,0.80187607,-0.062002823,0.1366811,-3.7899606
1151,2026-05-11 16:14:25.107776,1.1640923,0.42593947,0.80187607,-0.062002823,0.1366811,-3.7899606
1152,2026-05-11 16:14:25.110672,1.1640923,0.42593947,0.80187607,-0.062002823,0.1366811,-3.7899606
1153,2026-05-11 16:14:25.113424,1.1640923,0.42593947,0.80187607,-0.062002823,0.1366811,-3.7899606
1154,2026-05-11 16:14:25.116866,1.1640923,0.42593947,0.80187607,-0.062002823,0.1366811,-3.7899606
1155,2026-05-11 16:14:25.119633,1.1640923,0.42593947,0.80187607,-0.062002823,0.1366811,-3.7899606
1156,2026-05-11 16:14:25.122419,1.1640923,0.42593947,0.80187607,-0.062002823,0.1366811,-3.7899606
1157,2026-05-11 16:14:25.125109,1.1640923,0.42593947,0.80187607,-0.062002823,0.1366811,-3.7899606
1158,2026-05-11 16:14:25.128115,1.1640923,0.42593947,0.80187607,0.18997909,0.18478674,-3.854865
1159,2026-05-11 16:14:25.130938,1.1640923,0.42593947,0.80187607,0.18997909,0.18478674,-3.854865
1160,2026-05-11 16:14:25.134208,1.2399504,0.35020337,0.9261516,0.18997909,0.18478674,-3.854865
1161,2026-05-11 16:14:25.137729,1.2399504,0.35020337,0.9261516,0.18997909,0.18478674,-3.854865
1162,2026-05-11 16:14:25.140861,1.2399504,0.35020337,0.9261516,0.18997909,0.18478674,-3.854865
1163,2026-05-11 16:14:25.143649,1.2399504,0.35020337,0.9261516,0.18997909,0.18478674,-3.854865
1164,2026-05-11 16:14:25.146259,1.2399504,0.35020337,0.9261516,0.18997909,0.18478674,-3.854865
1165,2026-05-11 16:14:25.150012,1.2399504,0.35020337,0.9261516,0.6114761,0.56062156,-3.9387064
1166,2026-05-11 16:14:25.153646,1.2399504,0.35020337,0.9261516,1.0445796,0.97585726,-4.0405684
1167,2026-05-11 16:14:25.156599,1.2399504,0.35020337,0.9261516,1.0445796,0.97585726,-4.0405684
1168,2026-05-11 16:14:25.159622,1.2399504,0.35020337,0.9261516,1.0445796,0.97585726,-4.0405684
1169,2026-05-11 16:14:25.162371,1.2399504,0.35020337,0.9261516,1.0445796,0.97585726,-4.0405684
1170,2026-05-11 16:14:25.165086,1.2399504,0.35020337,0.9261516,1.0445796,0.97585726,-4.0405684
1171,2026-05-11 16:14:25.168584,1.349225,0.35739893,0.9504823,1.0445796,0.97585726,-4.0405684
1172,2026-05-11 16:14:25.171274,1.349225,0.35739893,0.9504823,1.0445796,0.97585726,-4.0405684
1173,2026-05-11 16:14:25.173926,1.349225,0.35739893,0.9504823,1.0445796,0.97585726,-4.0405684
1174,2026-05-11 16:14:25.176538,1.349225,0.35739893,0.9504823,1.0445796,0.97585726,-4.0405684
1175,2026-05-11 16:14:25.179176,1.349225,0.35739893,0.9504823,1.0445796,0.97585726,-4.0405684
1176,2026-05-11 16:14:25.182049,1.4506334,0.41252404,0.9724348,1.8275561,1.0848967,-4.334242
1177,2026-05-11 16:14:25.185440,1.5911294,0.438989,0.98036206,1.8275561,1.0848967,-4.334242
1178,2026-05-11 16:14:25.188352,1.9906648,0.4492945,1.0257916,1.9891299,1.0606148,-4.408004
1179,2026-05-11 16:14:25.191203,1.9906648,0.4492945,1.0257916,1.9891299,1.0606148,-4.408004
1180,2026-05-11 16:14:25.193854,1.9906648,0.4492945,1.0257916,1.9891299,1.0606148,-4.408004
1181,2026-05-11 16:14:25.196626,1.9906648,0.4492945,1.0257916,2.5809057,0.86422163,-4.76536
1182,2026-05-11 16:14:25.199749,1.9906648,0.4492945,1.0257916,2.5809057,0.86422163,-4.76536
1183,2026-05-11 16:14:25.202644,1.9906648,0.4492945,1.0257916,2.5809057,0.86422163,-4.76536
1184,2026-05-11 16:14:25.205311,1.9906648,0.4492945,1.0257916,2.5809057,0.86422163,-4.76536
1185,2026-05-11 16:14:25.208142,2.154516,0.49106526,1.0728065,2.5809057,0.86422163,-4.76536
1186,2026-05-11 16:14:25.211000,2.154516,0.49106526,1.0728065,2.9167287,0.7099781,-5.042387
1187,2026-05-11 16:14:25.213657,2.154516,0.49106526,1.0728065,2.9167287,0.7099781,-5.042387
1188,2026-05-11 16:14:25.216739,2.154516,0.49106526,1.0728065,3.0940325,0.74006325,-5.292842
1189,2026-05-11 16:14:25.219497,2.154516,0.49106526,1.0728065,3.0940325,0.74006325,-5.292842
1190,2026-05-11 16:14:25.222114,2.154516,0.49106526,1.0728065,3.0940325,0.74006325,-5.292842
1191,2026-05-11 16:14:25.224922,2.4400206,0.48661375,1.0583545,3.0940325,0.74006325,-5.292842
1192,2026-05-11 16:14:25.227704,2.4400206,0.48661375,1.0583545,3.0940325,0.74006325,-5.292842
1193,2026-05-11 16:14:25.230323,2.4400206,0.48661375,1.0583545,3.0940325,0.74006325,-5.292842
1194,2026-05-11 16:14:25.233183,2.4400206,0.48661375,1.0583545,3.0940325,0.74006325,-5.292842
1195,2026-05-11 16:14:25.236136,2.4400206,0.48661375,1.0583545,3.0940325,0.74006325,-5.292842
1196,2026-05-11 16:14:25.238791,2.4400206,0.48661375,1.0583545,3.0940325,0.74006325,-5.292842
1197,2026-05-11 16:14:25.241534,2.4400206,0.48661375,1.0583545,3.0940325,0.74006325,-5.292842
1198,2026-05-11 16:14:25.244235,2.4400206,0.48661375,1.0583545,3.0940325,0.74006325,-5.292842
1199,2026-05-11 16:14:25.246809,2.4400206,0.48661375,1.0583545,3.0940325,0.74006325,-5.292842
1200,2026-05-11 16:14:25.249740,2.4400206,0.48661375,1.0583545,3.0940325,0.74006325,-5.292842
1201,2026-05-11 16:14:25.252528,2.4400206,0.48661375,1.0583545,3.0940325,0.74006325,-5.292842
1202,2026-05-11 16:14:25.255151,2.4400206,0.48661375,1.0583545,3.0940325,0.74006325,-5.292842
1203,2026-05-11 16:14:25.257879,2.4400206,0.48661375,1.0583545,3.0772338,1.2522738,-5.684712
1204,2026-05-11 16:14:25.260471,2.4400206,0.48661375,1.0583545,3.0772338,1.2522738,-5.684712
1205,2026-05-11 16:14:25.263329,2.4400206,0.48661375,1.0583545,3.0772338,1.2522738,-5.684712
1206,2026-05-11 16:14:25.266342,2.7276592,0.35197178,0.96761745,3.0772338,1.2522738,-5.684712
1207,2026-05-11 16:14:25.269254,2.7276592,0.35197178,0.96761745,3.0772338,1.2522738,-5.684712
1208,2026-05-11 16:14:25.271865,2.7276592,0.35197178,0.96761745,3.0772338,1.2522738,-5.684712
1209,2026-05-11 16:14:25.274581,2.7276592,0.35197178,0.96761745,3.0772338,1.2522738,-5.684712
1210,2026-05-11 16:14:25.277205,2.7276592,0.35197178,0.96761745,3.0772338,1.2522738,-5.684712
1211,2026-05-11 16:14:25.279887,2.7276592,0.35197178,0.96761745,3.0772338,1.2522738,-5.684712
1212,2026-05-11 16:14:25.282849,2.7276592,0.35197178,0.96761745,3.0772338,1.2522738,-5.684712
1213,2026-05-11 16:14:25.285535,2.7276592,0.35197178,0.96761745,3.0772338,1.2522738,-5.684712
1214,2026-05-11 16:14:25.288154,2.7276592,0.35197178,0.96761745,3.0772338,1.2522738,-5.684712
1215,2026-05-11 16:14:25.290892,2.7276592,0.35197178,0.96761745,3.0772338,1.2522738,-5.684712
1216,2026-05-11 16:14:25.293631,2.8460197,0.23507468,0.889869,3.0772338,1.2522738,-5.684712
1217,2026-05-11 16:14:25.296271,2.8460197,0.23507468,0.889869,3.0772338,1.2522738,-5.684712
1218,2026-05-11 16:14:25.299153,2.8460197,0.23507468,0.889869,3.0772338,1.2522738,-5.684712
1219,2026-05-11 16:14:25.302065,2.8460197,0.23507468,0.889869,3.0772338,1.2522738,-5.684712
1220,2026-05-11 16:14:25.304910,2.8460197,0.23507468,0.889869,3.0772338,1.2522738,-5.684712
1221,2026-05-11 16:14:25.307671,2.8460197,0.23507468,0.889869,3.0772338,1.2522738,-5.684712
1222,2026-05-11 16:14:25.310276,2.8460197,0.23507468,0.889869,3.0772338,1.2522738,-5.684712
1223,2026-05-11 16:14:25.313148,2.8460197,0.23507468,0.889869,3.0772338,1.2522738,-5.684712
1224,2026-05-11 16:14:25.316268,2.8460197,0.23507468,0.889869,3.0772338,1.2522738,-5.684712
1225,2026-05-11 16:14:25.319120,2.8460197,0.23507468,0.889869,3.0772338,1.2522738,-5.684712
1226,2026-05-11 16:14:25.321903,2.8460197,0.23507468,0.889869,2.9060388,2.1836905,-6.192799
1227,2026-05-11 16:14:25.324667,2.8460197,0.23507468,0.889869,2.9060388,2.1836905,-6.192799
1228,2026-05-11 16:14:25.327282,2.8460197,0.23507468,0.889869,2.9060388,2.1836905,-6.192799
1229,2026-05-11 16:14:25.330099,2.8460197,0.23507468,0.889869,2.588694,2.9946141,-6.6764517
1230,2026-05-11 16:14:25.333015,2.8460197,0.23507468,0.889869,2.588694,2.9946141,-6.6764517
1231,2026-05-11 16:14:25.335910,2.8460197,0.23507468,0.889869,2.588694,2.9946141,-6.6764517
1232,2026-05-11 16:14:25.338615,2.7995534,-0.06890646,0.78809476,2.588694,2.9946141,-6.6764517
1233,2026-05-11 16:14:25.341436,2.5404532,-0.31099376,0.84291506,2.588694,2.9946141,-6.6764517
1234,2026-05-11 16:14:25.344039,2.5404532,-0.31099376,0.84291506,2.588694,2.9946141,-6.6764517
1235,2026-05-11 16:14:25.346888,2.5404532,-0.31099376,0.84291506,2.588694,2.9946141,-6.6764517
1236,2026-05-11 16:14:25.349923,2.5404532,-0.31099376,0.84291506,2.5631905,3.3421965,-6.962489
1237,2026-05-11 16:14:25.352732,2.5404532,-0.31099376,0.84291506,2.5631905,3.3421965,-6.962489
1238,2026-05-11 16:14:25.355339,2.5404532,-0.31099376,0.84291506,2.5631905,3.3421965,-6.962489
1239,2026-05-11 16:14:25.358175,2.5404532,-0.31099376,0.84291506,2.5631905,3.3421965,-6.962489
1240,2026-05-11 16:14:25.360764,2.5404532,-0.31099376,0.84291506,2.5631905,3.3421965,-6.962489
1241,2026-05-11 16:14:25.363457,2.5404532,-0.31099376,0.84291506,2.5631905,3.3421965,-6.962489
1242,2026-05-11 16:14:25.366157,2.5404532,-0.31099376,0.84291506,2.5631905,3.3421965,-6.962489
1243,2026-05-11 16:14:25.368875,2.5404532,-0.31099376,0.84291506,2.5631905,3.3421965,-6.962489
1244,2026-05-11 16:14:25.371482,2.5404532,-0.31099376,0.84291506,2.5631905,3.3421965,-6.962489
1245,2026-05-11 16:14:25.374050,2.5404532,-0.31099376,0.84291506,2.5631905,3.3421965,-6.962489
1246,2026-05-11 16:14:25.376777,2.5404532,-0.31099376,0.84291506,2.5631905,3.3421965,-6.962489
1247,2026-05-11 16:14:25.379620,2.5404532,-0.31099376,0.84291506,2.5631905,3.3421965,-6.962489
1248,2026-05-11 16:14:25.382403,2.5404532,-0.31099376,0.84291506,2.5631905,3.3421965,-6.962489
1249,2026-05-11 16:14:25.385525,2.5404532,-0.31099376,0.84291506,2.5631905,3.3421965,-6.962489
1250,2026-05-11 16:14:25.388201,2.5404532,-0.31099376,0.84291506,2.5631905,3.3421965,-6.962489
1251,2026-05-11 16:14:25.390804,2.5404532,-0.31099376,0.84291506,2.5631905,3.3421965,-6.962489
1252,2026-05-11 16:14:25.393593,2.5404532,-0.31099376,0.84291506,2.8055513,3.2403347,-7.049385
1253,2026-05-11 16:14:25.396204,2.5404532,-0.31099376,0.84291506,2.8055513,3.2403347,-7.049385
1254,2026-05-11 16:14:25.398937,2.5404532,-0.31099376,0.84291506,2.8055513,3.2403347,-7.049385
1255,2026-05-11 16:14:25.402011,2.5404532,-0.31099376,0.84291506,2.8055513,3.2403347,-7.049385
1256,2026-05-11 16:14:25.404738,2.2588513,-0.5469831,0.9195048,2.8055513,3.2403347,-7.049385
