id,timestamp,acc_x,acc_y,acc_z,gyro_x,gyro_y,gyro_z
1,2026-05-11 16:09:38.746085,0.7041264,-0.3111157,2.335014,-0.9254609,-0.68844515,0.01160644
2,2026-05-11 16:09:38.757590,0.75047064,-0.23916028,2.5399044,-0.6033822,-0.035124753,-0.19746219
3,2026-05-11 16:09:38.760719,0.75047064,-0.23916028,2.5399044,-0.6033822,-0.035124753,-0.19746219
4,2026-05-11 16:09:38.763441,0.75047064,-0.23916028,2.5399044,-0.6033822,-0.035124753,-0.19746219
5,2026-05-11 16:09:38.766395,0.75047064,-0.23916028,2.5399044,-0.6033822,-0.035124753,-0.19746219
6,2026-05-11 16:09:38.769500,0.75047064,-0.23916028,2.5399044,-0.6033822,-0.035124753,-0.19746219
7,2026-05-11 16:09:38.772174,0.75047064,-0.23916028,2.5399044,-0.6033822,-0.035124753,-0.19746219
8,2026-05-11 16:09:38.774756,0.75047064,-0.23916028,2.5399044,-0.6033822,-0.035124753,-0.19746219
9,2026-05-11 16:09:38.777630,0.75047064,-0.23916028,2.5399044,-0.6033822,-0.035124753,-0.19746219
10,2026-05-11 16:09:38.780248,0.75047064,-0.23916028,2.5399044,-0.6033822,-0.035124753,-0.19746219
11,2026-05-11 16:09:38.783260,0.75047064,-0.23916028,2.5399044,-0.6033822,-0.035124753,-0.19746219
12,2026-05-11 16:09:38.786518,0.75047064,-0.23916028,2.5399044,-0.6033822,-0.035124753,-0.19746219
13,2026-05-11 16:09:38.789433,0.740409,-0.21403688,2.6815588,-0.16172658,0.75228053,-0.4361578
14,2026-05-11 16:09:38.792096,0.740409,-0.21403688,2.6815588,-0.16172658,0.75228053,-0.4361578
15,2026-05-11 16:09:38.794792,0.740409,-0.21403688,2.6815588,-0.16172658,0.75228053,-0.4361578
16,2026-05-11 16:09:38.797368,0.740409,-0.21403688,2.6815588,-0.16172658,0.75228053,-0.4361578
17,2026-05-11 16:09:38.800225,0.740409,-0.21403688,2.6815588,-0.16172658,0.75228053,-0.4361578
18,2026-05-11 16:09:38.803412,0.740409,-0.21403688,2.6815588,-0.16172658,0.75228053,-0.4361578
19,2026-05-11 16:09:38.806007,0.740409,-0.21403688,2.6815588,-0.16172658,0.75228053,-0.4361578
20,2026-05-11 16:09:38.808581,0.740409,-0.21403688,2.6815588,-0.16172658,0.75228053,-0.4361578
21,2026-05-11 16:09:38.811303,0.740409,-0.21403688,2.6815588,-0.16172658,0.75228053,-0.4361578
22,2026-05-11 16:09:38.813845,0.740409,-0.21403688,2.6815588,-0.16172658,0.75228053,-0.4361578
23,2026-05-11 16:09:38.817660,0.740409,-0.21403688,2.6815588,-0.16172658,0.75228053,-0.4361578
24,2026-05-11 16:09:38.820431,0.740409,-0.21403688,2.6815588,-0.16172658,0.75228053,-0.4361578
25,2026-05-11 16:09:38.823192,0.740409,-0.21403688,2.6815588,-0.16172658,0.75228053,-0.4361578
26,2026-05-11 16:09:38.825944,0.740409,-0.21403688,2.6815588,-0.16172658,0.75228053,-0.4361578
27,2026-05-11 16:09:38.828611,0.740409,-0.21403688,2.6815588,-0.16172658,0.75228053,-0.4361578
28,2026-05-11 16:09:38.831192,0.740409,-0.21403688,2.6815588,-0.16172658,0.75228053,-0.4361578
29,2026-05-11 16:09:38.834097,0.740409,-0.21403688,2.6815588,-0.16172658,0.75228053,-0.4361578
30,2026-05-11 16:09:38.836999,0.740409,-0.21403688,2.6815588,-0.16172658,0.75228053,-0.4361578
31,2026-05-11 16:09:38.839583,0.740409,-0.21403688,2.6815588,-0.16172658,0.75228053,-0.4361578
32,2026-05-11 16:09:38.842259,0.740409,-0.21403688,2.6815588,-0.16172658,0.75228053,-0.4361578
33,2026-05-11 16:09:38.844971,0.740409,-0.21403688,2.6815588,-0.16172658,0.75228053,-0.4361578
34,2026-05-11 16:09:38.847601,0.740409,-0.21403688,2.6815588,-0.16172658,0.75228053,-0.4361578
35,2026-05-11 16:09:38.850755,0.740409,-0.21403688,2.6815588,-0.16172658,0.75228053,-0.4361578
36,2026-05-11 16:09:38.853536,0.740409,-0.21403688,2.6815588,-0.16172658,0.75228053,-0.4361578
37,2026-05-11 16:09:38.856151,0.740409,-0.21403688,2.6815588,-0.16172658,0.75228053,-0.4361578
38,2026-05-11 16:09:38.858695,0.740409,-0.21403688,2.6815588,-0.16172658,0.75228053,-0.4361578
39,2026-05-11 16:09:38.861416,0.740409,-0.21403688,2.6815588,-0.16172658,0.75228053,-0.4361578
40,2026-05-11 16:09:38.863959,0.740409,-0.21403688,2.6815588,-0.16172658,0.75228053,-0.4361578
41,2026-05-11 16:09:38.867006,0.740409,-0.21403688,2.6815588,-0.16172658,0.75228053,-0.4361578
42,2026-05-11 16:09:38.869815,0.740409,-0.21403688,2.6815588,-0.16172658,0.75228053,-0.4361578
43,2026-05-11 16:09:38.872443,0.740409,-0.21403688,2.6815588,-0.16172658,0.75228053,-0.4361578
44,2026-05-11 16:09:38.875184,0.740409,-0.21403688,2.6815588,-0.16172658,0.75228053,-0.4361578
45,2026-05-11 16:09:38.877793,0.740409,-0.21403688,2.6815588,-0.16172658,0.75228053,-0.4361578
46,2026-05-11 16:09:38.880452,0.740409,-0.21403688,2.6815588,-0.16172658,0.75228053,-0.4361578
47,2026-05-11 16:09:38.883271,0.6857108,-0.19854817,2.686742,-0.16172658,0.75228053,-0.4361578
48,2026-05-11 16:09:38.886078,0.6857108,-0.19854817,2.686742,-0.16172658,0.75228053,-0.4361578
49,2026-05-11 16:09:38.888798,0.6857108,-0.19854817,2.686742,-0.16172658,0.75228053,-0.4361578
50,2026-05-11 16:09:38.891364,0.6857108,-0.19854817,2.686742,-0.16172658,0.75228053,-0.4361578
51,2026-05-11 16:09:38.893988,0.6857108,-0.19854817,2.686742,-0.16172658,0.75228053,-0.4361578
52,2026-05-11 16:09:38.896557,0.6857108,-0.19854817,2.686742,-0.16172658,0.75228053,-0.4361578
53,2026-05-11 16:09:38.899087,0.6857108,-0.19854817,2.686742,-0.16172658,0.75228053,-0.4361578
54,2026-05-11 16:09:38.902076,0.6857108,-0.19854817,2.686742,-0.16172658,0.75228053,-0.4361578
55,2026-05-11 16:09:38.904924,0.6857108,-0.19854817,2.686742,-0.16172658,0.75228053,-0.4361578
56,2026-05-11 16:09:38.907547,0.6857108,-0.19854817,2.686742,-0.16172658,0.75228053,-0.4361578
57,2026-05-11 16:09:38.910132,0.6857108,-0.19854817,2.686742,-0.16172658,0.75228053,-0.4361578
58,2026-05-11 16:09:38.912726,0.6857108,-0.19854817,2.686742,-0.16172658,0.75228053,-0.4361578
59,2026-05-11 16:09:38.915276,0.6857108,-0.19854817,2.686742,-0.16172658,0.75228053,-0.4361578
60,2026-05-11 16:09:38.918386,0.6857108,-0.19854817,2.686742,-0.16172658,0.75228053,-0.4361578
61,2026-05-11 16:09:38.921035,0.6857108,-0.19854817,2.686742,-0.16172658,0.75228053,-0.4361578
62,2026-05-11 16:09:38.923657,0.6857108,-0.19854817,2.686742,-0.16172658,0.75228053,-0.4361578
63,2026-05-11 16:09:38.926344,0.6857108,-0.19854817,2.686742,-0.16172658,0.75228053,-0.4361578
64,2026-05-11 16:09:38.928893,0.6857108,-0.19854817,2.686742,-0.16172658,0.75228053,-0.4361578
65,2026-05-11 16:09:38.931762,0.6857108,-0.19854817,2.686742,-0.16172658,0.75228053,-0.4361578
66,2026-05-11 16:09:38.934728,0.6857108,-0.19854817,2.686742,-0.16172658,0.75228053,-0.4361578
67,2026-05-11 16:09:38.937477,0.6857108,-0.19854817,2.686742,-0.16172658,0.75228053,-0.4361578
68,2026-05-11 16:09:38.940288,0.6857108,-0.19854817,2.686742,-0.16172658,0.75228053,-0.4361578
69,2026-05-11 16:09:38.942880,0.6857108,-0.19854817,2.686742,-0.16172658,0.75228053,-0.4361578
70,2026-05-11 16:09:38.945521,0.6857108,-0.19854817,2.686742,-0.16172658,0.75228053,-0.4361578
71,2026-05-11 16:09:38.948059,0.6857108,-0.19854817,2.686742,-0.16172658,0.75228053,-0.4361578
72,2026-05-11 16:09:38.951166,0.6857108,-0.19854817,2.686742,-0.16172658,0.75228053,-0.4361578
73,2026-05-11 16:09:38.954047,0.6857108,-0.19854817,2.686742,-0.16172658,0.75228053,-0.4361578
74,2026-05-11 16:09:38.956639,0.6857108,-0.19854817,2.686742,-0.16172658,0.75228053,-0.4361578
75,2026-05-11 16:09:38.959225,0.6857108,-0.19854817,2.686742,-0.16172658,0.75228053,-0.4361578
76,2026-05-11 16:09:38.961812,0.6857108,-0.19854817,2.686742,-0.16172658,0.75228053,-0.4361578
77,2026-05-11 16:09:38.964357,0.6857108,-0.19854817,2.686742,-0.16172658,0.75228053,-0.4361578
78,2026-05-11 16:09:38.967469,0.6857108,-0.19854817,2.686742,-0.16172658,0.75228053,-0.4361578
79,2026-05-11 16:09:38.970268,0.6857108,-0.19854817,2.686742,-0.16172658,0.75228053,-0.4361578
80,2026-05-11 16:09:38.972852,0.6857108,-0.19854817,2.686742,-0.16172658,0.75228053,-0.4361578
81,2026-05-11 16:09:38.975410,0.6857108,-0.19854817,2.686742,-0.16172658,0.75228053,-0.4361578
82,2026-05-11 16:09:38.978276,0.6857108,-0.19854817,2.686742,-0.16172658,0.75228053,-0.4361578
83,2026-05-11 16:09:38.980882,0.6857108,-0.19854817,2.686742,-0.16172658,0.75228053,-0.4361578
84,2026-05-11 16:09:38.984072,0.6857108,-0.19854817,2.686742,-0.16172658,0.75228053,-0.4361578
85,2026-05-11 16:09:38.986818,0.6857108,-0.19854817,2.686742,-0.16172658,0.75228053,-0.4361578
86,2026-05-11 16:09:38.989413,0.6857108,-0.19854817,2.686742,-0.16172658,0.75228053,-0.4361578
87,2026-05-11 16:09:38.992103,0.6857108,-0.19854817,2.686742,-0.16172658,0.75228053,-0.4361578
88,2026-05-11 16:09:38.994658,0.6857108,-0.19854817,2.686742,-0.16172658,0.75228053,-0.4361578
89,2026-05-11 16:09:38.997482,0.6857108,-0.19854817,2.686742,-0.16172658,0.75228053,-0.4361578
90,2026-05-11 16:09:39.000433,0.6857108,-0.19854817,2.686742,-0.16172658,0.75228053,-0.4361578
91,2026-05-11 16:09:39.003286,0.6857108,-0.19854817,2.686742,0.27046058,1.2771665,-0.5345071
92,2026-05-11 16:09:39.005948,0.6857108,-0.19854817,2.686742,0.27046058,1.2771665,-0.5345071
93,2026-05-11 16:09:39.008528,0.6857108,-0.19854817,2.686742,0.27046058,1.2771665,-0.5345071
94,2026-05-11 16:09:39.011105,0.6857108,-0.19854817,2.686742,0.27046058,1.2771665,-0.5345071
95,2026-05-11 16:09:39.013667,0.6857108,-0.19854817,2.686742,0.27046058,1.2771665,-0.5345071
96,2026-05-11 16:09:39.016718,0.6857108,-0.19854817,2.686742,0.27046058,1.2771665,-0.5345071
97,2026-05-11 16:09:39.019556,0.6857108,-0.19854817,2.686742,0.27046058,1.2771665,-0.5345071
98,2026-05-11 16:09:39.022102,0.6857108,-0.19854817,2.686742,0.27046058,1.2771665,-0.5345071
99,2026-05-11 16:09:39.024814,0.6857108,-0.19854817,2.686742,0.27046058,1.2771665,-0.5345071
100,2026-05-11 16:09:39.027453,0.6857108,-0.19854817,2.686742,0.27046058,1.2771665,-0.5345071
101,2026-05-11 16:09:39.030030,0.6857108,-0.19854817,2.686742,0.27046058,1.2771665,-0.5345071
102,2026-05-11 16:09:39.033183,0.6857108,-0.19854817,2.686742,0.27046058,1.2771665,-0.5345071
103,2026-05-11 16:09:39.035863,0.6857108,-0.19854817,2.686742,0.27046058,1.2771665,-0.5345071
104,2026-05-11 16:09:39.038424,0.6857108,-0.19854817,2.686742,0.27046058,1.2771665,-0.5345071
105,2026-05-11 16:09:39.040951,0.6857108,-0.19854817,2.686742,0.27046058,1.2771665,-0.5345071
106,2026-05-11 16:09:39.043822,0.6857108,-0.19854817,2.686742,0.27046058,1.2771665,-0.5345071
107,2026-05-11 16:09:39.046444,0.6857108,-0.19854817,2.686742,0.27046058,1.2771665,-0.5345071
108,2026-05-11 16:09:39.049015,0.6857108,-0.19854817,2.686742,0.27046058,1.2771665,-0.5345071
109,2026-05-11 16:09:39.052069,0.6857108,-0.19854817,2.686742,0.27046058,1.2771665,-0.5345071
110,2026-05-11 16:09:39.054775,0.6857108,-0.19854817,2.686742,0.27046058,1.2771665,-0.5345071
111,2026-05-11 16:09:39.057527,0.6857108,-0.19854817,2.686742,0.27046058,1.2771665,-0.5345071
112,2026-05-11 16:09:39.060130,0.6857108,-0.19854817,2.686742,0.27046058,1.2771665,-0.5345071
113,2026-05-11 16:09:39.062705,0.6857108,-0.19854817,2.686742,0.27046058,1.2771665,-0.5345071
114,2026-05-11 16:09:39.065255,0.6857108,-0.19854817,2.686742,0.27046058,1.2771665,-0.5345071
115,2026-05-11 16:09:39.068286,0.6857108,-0.19854817,2.686742,0.27046058,1.2771665,-0.5345071
116,2026-05-11 16:09:39.070961,0.6857108,-0.19854817,2.686742,0.27046058,1.2771665,-0.5345071
117,2026-05-11 16:09:39.073530,0.6857108,-0.19854817,2.686742,0.27046058,1.2771665,-0.5345071
118,2026-05-11 16:09:39.076098,0.6857108,-0.19854817,2.686742,0.27046058,1.2771665,-0.5345071
119,2026-05-11 16:09:39.078905,0.6857108,-0.19854817,2.686742,0.27046058,1.2771665,-0.5345071
120,2026-05-11 16:09:39.081488,0.6857108,-0.19854817,2.686742,0.27046058,1.2771665,-0.5345071
121,2026-05-11 16:09:39.084678,0.6857108,-0.19854817,2.686742,0.27046058,1.2771665,-0.5345071
122,2026-05-11 16:09:39.087467,0.6857108,-0.19854817,2.686742,0.27046058,1.2771665,-0.5345071
123,2026-05-11 16:09:39.090045,0.6857108,-0.19854817,2.686742,0.27046058,1.2771665,-0.5345071
124,2026-05-11 16:09:39.092923,0.6857108,-0.19854817,2.686742,0.27046058,1.2771665,-0.5345071
125,2026-05-11 16:09:39.095523,0.6857108,-0.19854817,2.686742,0.27046058,1.2771665,-0.5345071
126,2026-05-11 16:09:39.098244,0.6857108,-0.19854817,2.686742,0.27046058,1.2771665,-0.5345071
127,2026-05-11 16:09:39.100915,0.6857108,-0.19854817,2.686742,0.27046058,1.2771665,-0.5345071
128,2026-05-11 16:09:39.104242,0.6857108,-0.19854817,2.686742,0.27046058,1.2771665,-0.5345071
129,2026-05-11 16:09:39.107040,0.6857108,-0.19854817,2.686742,0.75961095,1.7620409,-0.6577492
130,2026-05-11 16:09:39.109753,0.6857108,-0.19854817,2.686742,0.75961095,1.7620409,-0.6577492
131,2026-05-11 16:09:39.112331,0.6857108,-0.19854817,2.686742,0.75961095,1.7620409,-0.6577492
132,2026-05-11 16:09:39.115116,0.6857108,-0.19854817,2.686742,0.75961095,1.7620409,-0.6577492
133,2026-05-11 16:09:39.117932,0.6857108,-0.19854817,2.686742,0.75961095,1.7620409,-0.6577492
134,2026-05-11 16:09:39.121217,0.6857108,-0.19854817,2.686742,0.75961095,1.7620409,-0.6577492
135,2026-05-11 16:09:39.123917,0.6857108,-0.19854817,2.686742,0.75961095,1.7620409,-0.6577492
136,2026-05-11 16:09:39.126503,0.6857108,-0.19854817,2.686742,0.75961095,1.7620409,-0.6577492
137,2026-05-11 16:09:39.129094,0.6857108,-0.19854817,2.686742,0.75961095,1.7620409,-0.6577492
138,2026-05-11 16:09:39.131868,0.6857108,-0.19854817,2.686742,0.75961095,1.7620409,-0.6577492
139,2026-05-11 16:09:39.160648,0.75528795,-0.1621436,2.561064,0.75961095,1.7620409,-0.6577492
140,2026-05-11 16:09:39.163809,0.75528795,-0.1621436,2.561064,0.75961095,1.7620409,-0.6577492
141,2026-05-11 16:09:39.172037,0.75528795,-0.1621436,2.561064,0.75961095,1.7620409,-0.6577492
142,2026-05-11 16:09:39.174943,0.75528795,-0.1621436,2.561064,0.75961095,1.7620409,-0.6577492
143,2026-05-11 16:09:39.177570,0.75528795,-0.1621436,2.561064,0.75961095,1.7620409,-0.6577492
144,2026-05-11 16:09:39.180393,0.75528795,-0.1621436,2.561064,0.75961095,1.7620409,-0.6577492
145,2026-05-11 16:09:39.183310,0.75528795,-0.1621436,2.561064,0.75961095,1.7620409,-0.6577492
146,2026-05-11 16:09:39.186409,0.7794357,-0.1293978,2.4541066,0.95157534,1.9996674,-0.7706065
147,2026-05-11 16:09:39.189008,0.7794357,-0.1293978,2.4541066,0.95157534,1.9996674,-0.7706065
148,2026-05-11 16:09:39.191800,0.7794357,-0.1293978,2.4541066,0.95157534,1.9996674,-0.7706065
149,2026-05-11 16:09:39.194462,0.7794357,-0.1293978,2.4541066,0.95157534,1.9996674,-0.7706065
150,2026-05-11 16:09:39.197217,0.7794357,-0.1293978,2.4541066,0.95157534,1.9996674,-0.7706065
151,2026-05-11 16:09:39.200389,0.7794357,-0.1293978,2.4541066,0.95157534,1.9996674,-0.7706065
152,2026-05-11 16:09:39.203115,0.7794357,-0.1293978,2.4541066,0.95157534,1.9996674,-0.7706065
153,2026-05-11 16:09:39.205764,0.7794357,-0.1293978,2.4541066,0.95157534,1.9996674,-0.7706065
154,2026-05-11 16:09:39.208353,0.7794357,-0.1293978,2.4541066,0.95157534,1.9996674,-0.7706065
155,2026-05-11 16:09:39.210903,0.7794357,-0.1293978,2.4541066,0.95157534,1.9996674,-0.7706065
156,2026-05-11 16:09:39.213803,0.7794357,-0.1293978,2.4541066,0.95157534,1.9996674,-0.7706065
157,2026-05-11 16:09:39.216890,0.7794357,-0.1293978,2.4541066,1.0954341,2.4982862,-1.0908526
158,2026-05-11 16:09:39.219805,0.7794357,-0.1293978,2.4541066,1.0954341,2.4982862,-1.0908526
159,2026-05-11 16:09:39.222396,0.7794357,-0.1293978,2.4541066,1.0954341,2.4982862,-1.0908526
160,2026-05-11 16:09:39.224954,0.7794357,-0.1293978,2.4541066,1.0954341,2.4982862,-1.0908526
161,2026-05-11 16:09:39.227777,0.7794357,-0.1293978,2.4541066,1.0954341,2.4982862,-1.0908526
162,2026-05-11 16:09:39.230385,0.7794357,-0.1293978,2.4541066,1.0954341,2.4982862,-1.0908526
163,2026-05-11 16:09:39.233246,0.7794357,-0.1293978,2.4541066,1.0954341,2.4982862,-1.0908526
164,2026-05-11 16:09:39.236358,0.7794357,-0.1293978,2.4541066,1.0954341,2.4982862,-1.0908526
165,2026-05-11 16:09:39.239016,0.77492326,-0.093481064,2.2658029,1.0954341,2.4982862,-1.0908526
166,2026-05-11 16:09:39.241664,0.77492326,-0.093481064,2.2658029,1.0954341,2.4982862,-1.0908526
167,2026-05-11 16:09:39.244433,0.77492326,-0.093481064,2.2658029,1.0954341,2.4982862,-1.0908526
168,2026-05-11 16:09:39.247007,0.77492326,-0.093481064,2.2658029,1.0954341,2.4982862,-1.0908526
169,2026-05-11 16:09:39.249671,0.77492326,-0.093481064,2.2658029,1.0954341,2.4982862,-1.0908526
170,2026-05-11 16:09:39.252754,0.77492326,-0.093481064,2.2658029,1.0954341,2.4982862,-1.0908526
171,2026-05-11 16:09:39.255306,0.77492326,-0.093481064,2.2658029,1.0954341,2.4982862,-1.0908526
172,2026-05-11 16:09:39.258164,0.77492326,-0.093481064,2.2658029,1.0954341,2.4982862,-1.0908526
173,2026-05-11 16:09:39.260825,0.77492326,-0.093481064,2.2658029,1.0954341,2.4982862,-1.0908526
174,2026-05-11 16:09:39.263571,0.77492326,-0.093481064,2.2658029,1.0954341,2.4982862,-1.0908526
175,2026-05-11 16:09:39.266281,0.77492326,-0.093481064,2.2658029,1.0954341,2.4982862,-1.0908526
176,2026-05-11 16:09:39.269592,0.77492326,-0.093481064,2.2658029,1.0954341,2.4982862,-1.0908526
177,2026-05-11 16:09:39.272329,0.68674743,-0.09707884,2.219154,1.0954341,2.4982862,-1.0908526
178,2026-05-11 16:09:39.275014,0.68674743,-0.09707884,2.219154,1.0954341,2.4982862,-1.0908526
179,2026-05-11 16:09:39.277625,0.68674743,-0.09707884,2.219154,1.0954341,2.4982862,-1.0908526
180,2026-05-11 16:09:39.280187,0.68674743,-0.09707884,2.219154,1.0954341,2.4982862,-1.0908526
181,2026-05-11 16:09:39.282774,0.68674743,-0.09707884,2.219154,1.093296,2.6580274,-1.2223413
182,2026-05-11 16:09:39.286106,0.68674743,-0.09707884,2.219154,1.093296,2.6580274,-1.2223413
183,2026-05-11 16:09:39.288771,0.68674743,-0.09707884,2.219154,1.093296,2.6580274,-1.2223413
184,2026-05-11 16:09:39.291410,0.68674743,-0.09707884,2.219154,1.093296,2.6580274,-1.2223413
185,2026-05-11 16:09:39.294170,0.68674743,-0.09707884,2.219154,1.093296,2.6580274,-1.2223413
186,2026-05-11 16:09:39.296784,0.68674743,-0.09707884,2.219154,1.093296,2.6580274,-1.2223413
187,2026-05-11 16:09:39.299367,0.68674743,-0.09707884,2.219154,1.093296,2.6580274,-1.2223413
188,2026-05-11 16:09:39.302636,0.68674743,-0.09707884,2.219154,1.093296,2.6580274,-1.2223413
189,2026-05-11 16:09:39.305392,0.68674743,-0.09707884,2.219154,1.093296,2.6580274,-1.2223413
190,2026-05-11 16:09:39.307942,0.68674743,-0.09707884,2.219154,1.093296,2.6580274,-1.2223413
191,2026-05-11 16:09:39.310554,0.68674743,-0.09707884,2.219154,1.093296,2.6580274,-1.2223413
192,2026-05-11 16:09:39.313293,0.68674743,-0.09707884,2.219154,1.093296,2.6580274,-1.2223413
193,2026-05-11 16:09:39.315972,0.68674743,-0.09707884,2.219154,1.093296,2.6580274,-1.2223413
194,2026-05-11 16:09:39.319102,0.68674743,-0.09707884,2.219154,1.093296,2.6580274,-1.2223413
195,2026-05-11 16:09:39.321714,0.68674743,-0.09707884,2.219154,1.093296,2.6580274,-1.2223413
196,2026-05-11 16:09:39.324415,0.68674743,-0.09707884,2.219154,1.093296,2.6580274,-1.2223413
197,2026-05-11 16:09:39.326989,0.68674743,-0.09707884,2.219154,1.093296,2.6580274,-1.2223413
198,2026-05-11 16:09:39.329719,0.68674743,-0.09707884,2.219154,1.093296,2.6580274,-1.2223413
199,2026-05-11 16:09:39.332280,0.68674743,-0.09707884,2.219154,1.093296,2.6580274,-1.2223413
200,2026-05-11 16:09:39.335324,0.68674743,-0.09707884,2.219154,1.093296,2.6580274,-1.2223413
201,2026-05-11 16:09:39.338029,0.68674743,-0.09707884,2.219154,1.093296,2.6580274,-1.2223413
202,2026-05-11 16:09:39.340630,0.68674743,-0.09707884,2.219154,1.093296,2.6580274,-1.2223413
203,2026-05-11 16:09:39.343193,0.68674743,-0.09707884,2.219154,1.093296,2.6580274,-1.2223413
204,2026-05-11 16:09:39.345816,0.68674743,-0.09707884,2.219154,1.093296,2.6580274,-1.2223413
205,2026-05-11 16:09:39.348371,0.68674743,-0.09707884,2.219154,1.093296,2.6580274,-1.2223413
206,2026-05-11 16:09:39.351540,0.68674743,-0.09707884,2.219154,1.093296,2.6580274,-1.2223413
207,2026-05-11 16:09:39.354369,0.68674743,-0.09707884,2.219154,1.093296,2.6580274,-1.2223413
208,2026-05-11 16:09:39.357094,0.68674743,-0.09707884,2.219154,1.093296,2.6580274,-1.2223413
209,2026-05-11 16:09:39.359781,0.68674743,-0.09707884,2.219154,1.093296,2.6580274,-1.2223413
210,2026-05-11 16:09:39.362482,0.68674743,-0.09707884,2.219154,1.093296,2.6580274,-1.2223413
211,2026-05-11 16:09:39.365024,0.68674743,-0.09707884,2.219154,1.093296,2.6580274,-1.2223413
212,2026-05-11 16:09:39.368100,0.68674743,-0.09707884,2.219154,1.093296,2.6580274,-1.2223413
213,2026-05-11 16:09:39.370771,0.68674743,-0.09707884,2.219154,1.093296,2.6580274,-1.2223413
214,2026-05-11 16:09:39.373316,0.68674743,-0.09707884,2.219154,1.093296,2.6580274,-1.2223413
215,2026-05-11 16:09:39.376017,0.68674743,-0.09707884,2.219154,1.093296,2.6580274,-1.2223413
216,2026-05-11 16:09:39.378586,0.68674743,-0.09707884,2.219154,1.093296,2.6580274,-1.2223413
217,2026-05-11 16:09:39.381311,0.68674743,-0.09707884,2.219154,1.093296,2.6580274,-1.2223413
218,2026-05-11 16:09:39.384332,0.68674743,-0.09707884,2.219154,1.093296,2.6580274,-1.2223413
219,2026-05-11 16:09:39.387137,0.68674743,-0.09707884,2.219154,1.093296,2.6580274,-1.2223413
220,2026-05-11 16:09:39.389791,0.68674743,-0.09707884,2.219154,1.093296,2.6580274,-1.2223413
221,2026-05-11 16:09:39.392375,0.68674743,-0.09707884,2.219154,1.093296,2.6580274,-1.2223413
222,2026-05-11 16:09:39.395114,0.68674743,-0.09707884,2.219154,1.093296,2.6580274,-1.2223413
223,2026-05-11 16:09:39.397692,0.68674743,-0.09707884,2.219154,1.093296,2.6580274,-1.2223413
224,2026-05-11 16:09:39.400638,0.68674743,-0.09707884,2.219154,1.093296,2.6580274,-1.2223413
225,2026-05-11 16:09:39.403377,0.68674743,-0.09707884,2.219154,1.093296,2.6580274,-1.2223413
226,2026-05-11 16:09:39.405981,0.68674743,-0.09707884,2.219154,1.093296,2.6580274,-1.2223413
227,2026-05-11 16:09:39.408527,0.68674743,-0.09707884,2.219154,1.093296,2.6580274,-1.2223413
228,2026-05-11 16:09:39.411256,0.5886929,-0.06073525,2.1847615,1.093296,2.6580274,-1.2223413
229,2026-05-11 16:09:39.413891,0.5886929,-0.06073525,2.1847615,1.093296,2.6580274,-1.2223413
230,2026-05-11 16:09:39.416799,0.5886929,-0.06073525,2.1847615,1.093296,2.6580274,-1.2223413
231,2026-05-11 16:09:39.419461,0.5886929,-0.06073525,2.1847615,1.093296,2.6580274,-1.2223413
232,2026-05-11 16:09:39.422018,0.5886929,-0.06073525,2.1847615,1.093296,2.6580274,-1.2223413
233,2026-05-11 16:09:39.424572,0.5886929,-0.06073525,2.1847615,1.093296,2.6580274,-1.2223413
234,2026-05-11 16:09:39.427121,0.5886929,-0.06073525,2.1847615,1.093296,2.6580274,-1.2223413
235,2026-05-11 16:09:39.429664,0.5886929,-0.06073525,2.1847615,1.093296,2.6580274,-1.2223413
236,2026-05-11 16:09:39.432199,0.5886929,-0.06073525,2.1847615,1.093296,2.6580274,-1.2223413
237,2026-05-11 16:09:39.435228,0.5886929,-0.06073525,2.1847615,1.093296,2.6580274,-1.2223413
238,2026-05-11 16:09:39.437883,0.5886929,-0.06073525,2.1847615,1.093296,2.6580274,-1.2223413
239,2026-05-11 16:09:39.440709,0.5886929,-0.06073525,2.1847615,1.093296,2.6580274,-1.2223413
240,2026-05-11 16:09:39.443486,0.5886929,-0.06073525,2.1847615,1.093296,2.6580274,-1.2223413
241,2026-05-11 16:09:39.446106,0.5886929,-0.06073525,2.1847615,1.093296,2.6580274,-1.2223413
242,2026-05-11 16:09:39.448715,0.5886929,-0.06073525,2.1847615,1.093296,2.6580274,-1.2223413
243,2026-05-11 16:09:39.451982,0.5886929,-0.06073525,2.1847615,1.093296,2.6580274,-1.2223413
244,2026-05-11 16:09:39.454652,0.5886929,-0.06073525,2.1847615,1.093296,2.6580274,-1.2223413
245,2026-05-11 16:09:39.457252,0.5886929,-0.06073525,2.1847615,1.093296,2.6580274,-1.2223413
246,2026-05-11 16:09:39.459797,0.5886929,-0.06073525,2.1847615,1.093296,2.6580274,-1.2223413
247,2026-05-11 16:09:39.462535,0.5886929,-0.06073525,2.1847615,1.093296,2.6580274,-1.2223413
248,2026-05-11 16:09:39.465112,0.5886929,-0.06073525,2.1847615,1.093296,2.6580274,-1.2223413
249,2026-05-11 16:09:39.468142,0.5886929,-0.06073525,2.1847615,1.093296,2.6580274,-1.2223413
250,2026-05-11 16:09:39.471038,0.5886929,-0.06073525,2.1847615,1.093296,2.6580274,-1.2223413
251,2026-05-11 16:09:39.473619,0.5886929,-0.06073525,2.1847615,1.093296,2.6580274,-1.2223413
252,2026-05-11 16:09:39.476211,0.5886929,-0.06073525,2.1847615,1.093296,2.6580274,-1.2223413
253,2026-05-11 16:09:39.478946,0.5886929,-0.06073525,2.1847615,1.093296,2.6580274,-1.2223413
254,2026-05-11 16:09:39.481497,0.5886929,-0.06073525,2.1847615,1.093296,2.6580274,-1.2223413
255,2026-05-11 16:09:39.484575,0.5886929,-0.06073525,2.1847615,1.093296,2.6580274,-1.2223413
256,2026-05-11 16:09:39.487248,0.5886929,-0.06073525,2.1847615,1.093296,2.6580274,-1.2223413
257,2026-05-11 16:09:39.489830,0.5886929,-0.06073525,2.1847615,1.093296,2.6580274,-1.2223413
258,2026-05-11 16:09:39.492640,0.5886929,-0.06073525,2.1847615,1.093296,2.6580274,-1.2223413
259,2026-05-11 16:09:39.495369,0.5886929,-0.06073525,2.1847615,1.093296,2.6580274,-1.2223413
260,2026-05-11 16:09:39.497945,0.5886929,-0.06073525,2.1847615,1.093296,2.6580274,-1.2223413
261,2026-05-11 16:09:39.501062,0.5886929,-0.06073525,2.1847615,1.093296,2.6580274,-1.2223413
262,2026-05-11 16:09:39.503771,0.5886929,-0.06073525,2.1847615,1.093296,2.6580274,-1.2223413
263,2026-05-11 16:09:39.506418,0.5886929,-0.06073525,2.1847615,1.093296,2.6580274,-1.2223413
264,2026-05-11 16:09:39.509150,0.5886929,-0.06073525,2.1847615,1.093296,2.6580274,-1.2223413
265,2026-05-11 16:09:39.511728,0.5886929,-0.06073525,2.1847615,1.093296,2.6580274,-1.2223413
266,2026-05-11 16:09:39.514542,0.5886929,-0.06073525,2.1847615,1.093296,2.6580274,-1.2223413
267,2026-05-11 16:09:39.517643,0.5886929,-0.06073525,2.1847615,1.093296,2.6580274,-1.2223413
268,2026-05-11 16:09:39.520553,0.5886929,-0.06073525,2.1847615,1.093296,2.6580274,-1.2223413
269,2026-05-11 16:09:39.523191,0.5886929,-0.06073525,2.1847615,1.093296,2.6580274,-1.2223413
270,2026-05-11 16:09:39.525740,0.5886929,-0.06073525,2.1847615,1.093296,2.6580274,-1.2223413
271,2026-05-11 16:09:39.528503,0.5886929,-0.06073525,2.1847615,1.093296,2.6580274,-1.2223413
272,2026-05-11 16:09:39.531090,0.5886929,-0.06073525,2.1847615,1.093296,2.6580274,-1.2223413
273,2026-05-11 16:09:39.533969,0.5886929,-0.06073525,2.1847615,1.093296,2.6580274,-1.2223413
274,2026-05-11 16:09:39.536847,0.5886929,-0.06073525,2.1847615,1.093296,2.6580274,-1.2223413
275,2026-05-11 16:09:39.539433,0.5886929,-0.06073525,2.1847615,1.093296,2.6580274,-1.2223413
276,2026-05-11 16:09:39.542021,0.5886929,-0.06073525,2.1847615,1.093296,2.6580274,-1.2223413
277,2026-05-11 16:09:39.544634,0.5886929,-0.06073525,2.1847615,1.093296,2.6580274,-1.2223413
278,2026-05-11 16:09:39.547196,0.5886929,-0.06073525,2.1847615,1.093296,2.6580274,-1.2223413
279,2026-05-11 16:09:39.550172,0.5886929,-0.06073525,2.1847615,1.093296,2.6580274,-1.2223413
280,2026-05-11 16:09:39.553093,0.5886929,-0.06073525,2.1847615,1.093296,2.6580274,-1.2223413
281,2026-05-11 16:09:39.555723,0.5886929,-0.06073525,2.1847615,1.093296,2.6580274,-1.2223413
282,2026-05-11 16:09:39.558263,0.5886929,-0.06073525,2.1847615,1.093296,2.6580274,-1.2223413
283,2026-05-11 16:09:39.561097,0.5886929,-0.06073525,2.1847615,1.093296,2.6580274,-1.2223413
284,2026-05-11 16:09:39.563682,0.5886929,-0.06073525,2.1847615,1.093296,2.6580274,-1.2223413
285,2026-05-11 16:09:39.566857,0.5886929,-0.06073525,2.1847615,1.093296,2.6580274,-1.2223413
286,2026-05-11 16:09:39.569647,0.5886929,-0.06073525,2.1847615,1.093296,2.6580274,-1.2223413
287,2026-05-11 16:09:39.572318,0.5886929,-0.06073525,2.1847615,1.093296,2.6580274,-1.2223413
288,2026-05-11 16:09:39.574868,0.5886929,-0.06073525,2.1847615,1.093296,2.6580274,-1.2223413
289,2026-05-11 16:09:39.577668,0.5886929,-0.06073525,2.1847615,1.093296,2.6580274,-1.2223413
290,2026-05-11 16:09:39.580253,0.5886929,-0.06073525,2.1847615,1.093296,2.6580274,-1.2223413
291,2026-05-11 16:09:39.582860,0.5886929,-0.06073525,2.1847615,1.093296,2.6580274,-1.2223413
292,2026-05-11 16:09:39.585938,0.5886929,-0.06073525,2.1847615,1.093296,2.6580274,-1.2223413
293,2026-05-11 16:09:39.588551,0.5886929,-0.06073525,2.1847615,1.1534663,2.643214,-1.2165382
294,2026-05-11 16:09:39.591233,0.5886929,-0.06073525,2.1847615,1.1534663,2.643214,-1.2165382
295,2026-05-11 16:09:39.593810,0.5886929,-0.06073525,2.1847615,1.1534663,2.643214,-1.2165382
296,2026-05-11 16:09:39.596453,0.5886929,-0.06073525,2.1847615,1.1534663,2.643214,-1.2165382
297,2026-05-11 16:09:39.598992,0.5886929,-0.06073525,2.1847615,1.1534663,2.643214,-1.2165382
298,2026-05-11 16:09:39.602081,0.5886929,-0.06073525,2.1847615,1.1534663,2.643214,-1.2165382
299,2026-05-11 16:09:39.604769,0.5886929,-0.06073525,2.1847615,1.1534663,2.643214,-1.2165382
300,2026-05-11 16:09:39.607325,0.5886929,-0.06073525,2.1847615,1.1534663,2.643214,-1.2165382
301,2026-05-11 16:09:39.609989,0.5886929,-0.06073525,2.1847615,1.1534663,2.643214,-1.2165382
302,2026-05-11 16:09:39.612529,0.5886929,-0.06073525,2.1847615,1.1534663,2.643214,-1.2165382
303,2026-05-11 16:09:39.615111,0.5886929,-0.06073525,2.1847615,1.1534663,2.643214,-1.2165382
304,2026-05-11 16:09:39.618291,0.5886929,-0.06073525,2.1847615,1.1534663,2.643214,-1.2165382
305,2026-05-11 16:09:39.620975,0.5886929,-0.06073525,2.1847615,1.1534663,2.643214,-1.2165382
306,2026-05-11 16:09:39.623695,0.5886929,-0.06073525,2.1847615,1.1534663,2.643214,-1.2165382
307,2026-05-11 16:09:39.626286,0.5886929,-0.06073525,2.1847615,1.1534663,2.643214,-1.2165382
308,2026-05-11 16:09:39.628992,0.5886929,-0.06073525,2.1847615,1.1534663,2.643214,-1.2165382
309,2026-05-11 16:09:39.631572,0.5886929,-0.06073525,2.1847615,1.1534663,2.643214,-1.2165382
310,2026-05-11 16:09:39.634583,0.5886929,-0.06073525,2.1847615,1.1534663,2.643214,-1.2165382
311,2026-05-11 16:09:39.637335,0.5886929,-0.06073525,2.1847615,1.1534663,2.643214,-1.2165382
312,2026-05-11 16:09:39.639966,0.5886929,-0.06073525,2.1847615,1.1534663,2.643214,-1.2165382
313,2026-05-11 16:09:39.642481,0.5886929,-0.06073525,2.1847615,1.1534663,2.643214,-1.2165382
314,2026-05-11 16:09:39.645270,0.5886929,-0.06073525,2.1847615,1.1534663,2.643214,-1.2165382
315,2026-05-11 16:09:39.647864,0.5886929,-0.06073525,2.1847615,1.1534663,2.643214,-1.2165382
316,2026-05-11 16:09:39.650942,0.5886929,-0.06073525,2.1847615,1.1534663,2.643214,-1.2165382
317,2026-05-11 16:09:39.653651,0.5886929,-0.06073525,2.1847615,1.1534663,2.643214,-1.2165382
318,2026-05-11 16:09:39.656276,0.56253284,-0.13976426,2.1187212,1.1534663,2.643214,-1.2165382
319,2026-05-11 16:09:39.659022,0.56253284,-0.13976426,2.1187212,1.1534663,2.643214,-1.2165382
320,2026-05-11 16:09:39.661666,0.56253284,-0.13976426,2.1187212,1.1534663,2.643214,-1.2165382
321,2026-05-11 16:09:39.664311,0.56253284,-0.13976426,2.1187212,1.1534663,2.643214,-1.2165382
322,2026-05-11 16:09:39.667270,0.56253284,-0.13976426,2.1187212,1.1534663,2.643214,-1.2165382
323,2026-05-11 16:09:39.670101,0.56253284,-0.13976426,2.1187212,1.1534663,2.643214,-1.2165382
324,2026-05-11 16:09:39.672655,0.56253284,-0.13976426,2.1187212,1.1534663,2.643214,-1.2165382
325,2026-05-11 16:09:39.675217,0.56253284,-0.13976426,2.1187212,1.1534663,2.643214,-1.2165382
326,2026-05-11 16:09:39.678040,0.56253284,-0.13976426,2.1187212,1.1534663,2.643214,-1.2165382
327,2026-05-11 16:09:39.680618,0.56253284,-0.13976426,2.1187212,1.1534663,2.643214,-1.2165382
328,2026-05-11 16:09:39.683595,0.56253284,-0.13976426,2.1187212,1.1534663,2.643214,-1.2165382
329,2026-05-11 16:09:39.686522,0.56253284,-0.13976426,2.1187212,1.1534663,2.643214,-1.2165382
330,2026-05-11 16:09:39.689169,0.56253284,-0.13976426,2.1187212,1.1534663,2.643214,-1.2165382
331,2026-05-11 16:09:39.691755,0.56253284,-0.13976426,2.1187212,1.1534663,2.643214,-1.2165382
332,2026-05-11 16:09:39.694565,0.56253284,-0.13976426,2.1187212,1.1534663,2.643214,-1.2165382
333,2026-05-11 16:09:39.697286,0.56253284,-0.13976426,2.1187212,1.1534663,2.643214,-1.2165382
334,2026-05-11 16:09:39.700154,0.56253284,-0.13976426,2.1187212,1.1534663,2.643214,-1.2165382
335,2026-05-11 16:09:39.703140,0.56253284,-0.13976426,2.1187212,1.1534663,2.643214,-1.2165382
336,2026-05-11 16:09:39.705791,0.56253284,-0.13976426,2.1187212,1.1534663,2.643214,-1.2165382
337,2026-05-11 16:09:39.708358,0.56253284,-0.13976426,2.1187212,1.1534663,2.643214,-1.2165382
338,2026-05-11 16:09:39.710895,0.56253284,-0.13976426,2.1187212,1.1534663,2.643214,-1.2165382
339,2026-05-11 16:09:39.713542,0.56253284,-0.13976426,2.1187212,1.1534663,2.643214,-1.2165382
340,2026-05-11 16:09:39.716313,0.56253284,-0.13976426,2.1187212,1.2608259,2.403144,-1.1531608
341,2026-05-11 16:09:39.719379,0.56253284,-0.13976426,2.1187212,1.2608259,2.403144,-1.1531608
342,2026-05-11 16:09:39.722131,0.56253284,-0.13976426,2.1187212,1.2608259,2.403144,-1.1531608
343,2026-05-11 16:09:39.724712,0.56253284,-0.13976426,2.1187212,1.2608259,2.403144,-1.1531608
344,2026-05-11 16:09:39.727294,0.56253284,-0.13976426,2.1187212,1.2608259,2.403144,-1.1531608
345,2026-05-11 16:09:39.729881,0.56253284,-0.13976426,2.1187212,1.2608259,2.403144,-1.1531608
346,2026-05-11 16:09:39.732558,0.56253284,-0.13976426,2.1187212,1.2608259,2.403144,-1.1531608
347,2026-05-11 16:09:39.735806,0.56253284,-0.13976426,2.1187212,1.2608259,2.403144,-1.1531608
348,2026-05-11 16:09:39.738668,0.60399866,-0.1515942,2.133966,1.2608259,2.403144,-1.1531608
349,2026-05-11 16:09:39.741407,0.60399866,-0.1515942,2.133966,1.2608259,2.403144,-1.1531608
350,2026-05-11 16:09:39.744004,0.60399866,-0.1515942,2.133966,1.2608259,2.403144,-1.1531608
351,2026-05-11 16:09:39.746717,0.60399866,-0.1515942,2.133966,1.2608259,2.403144,-1.1531608
352,2026-05-11 16:09:39.749424,0.60399866,-0.1515942,2.133966,1.2608259,2.403144,-1.1531608
353,2026-05-11 16:09:39.752743,0.60399866,-0.1515942,2.133966,1.2608259,2.403144,-1.1531608
354,2026-05-11 16:09:39.755412,0.60399866,-0.1515942,2.133966,1.2608259,2.403144,-1.1531608
355,2026-05-11 16:09:39.757985,0.60399866,-0.1515942,2.133966,1.2608259,2.403144,-1.1531608
356,2026-05-11 16:09:39.760792,0.60399866,-0.1515942,2.133966,1.2608259,2.403144,-1.1531608
357,2026-05-11 16:09:39.763470,0.73193294,-0.19421865,2.1080499,1.3849843,2.3014348,-1.110553
358,2026-05-11 16:09:39.766159,0.73193294,-0.19421865,2.1080499,1.3849843,2.3014348,-1.110553
359,2026-05-11 16:09:39.769403,0.73193294,-0.19421865,2.1080499,1.6621643,2.4543037,-1.0009027
360,2026-05-11 16:09:39.772033,0.73193294,-0.19421865,2.1080499,1.6621643,2.4543037,-1.0009027
361,2026-05-11 16:09:39.774563,0.73193294,-0.19421865,2.1080499,1.6621643,2.4543037,-1.0009027
362,2026-05-11 16:09:39.777367,0.73193294,-0.19421865,2.1080499,1.6621643,2.4543037,-1.0009027
363,2026-05-11 16:09:39.780063,0.73193294,-0.19421865,2.1080499,1.6621643,2.4543037,-1.0009027
364,2026-05-11 16:09:39.782707,0.73193294,-0.19421865,2.1080499,1.6621643,2.4543037,-1.0009027
365,2026-05-11 16:09:39.785644,0.73193294,-0.19421865,2.1080499,1.6621643,2.4543037,-1.0009027
366,2026-05-11 16:09:39.788316,0.73193294,-0.19421865,2.1080499,1.6621643,2.4543037,-1.0009027
367,2026-05-11 16:09:39.791161,0.73193294,-0.19421865,2.1080499,1.6621643,2.4543037,-1.0009027
368,2026-05-11 16:09:39.793915,0.73193294,-0.19421865,2.1080499,1.6621643,2.4543037,-1.0009027
369,2026-05-11 16:09:39.796611,0.73193294,-0.19421865,2.1080499,1.6621643,2.4543037,-1.0009027
370,2026-05-11 16:09:39.799386,0.73193294,-0.19421865,2.1080499,1.6621643,2.4543037,-1.0009027
371,2026-05-11 16:09:39.802516,0.73193294,-0.19421865,2.1080499,1.6621643,2.4543037,-1.0009027
372,2026-05-11 16:09:39.805281,0.73193294,-0.19421865,2.1080499,1.6621643,2.4543037,-1.0009027
373,2026-05-11 16:09:39.807944,0.73193294,-0.19421865,2.1080499,1.6621643,2.4543037,-1.0009027
374,2026-05-11 16:09:39.810518,0.73193294,-0.19421865,2.1080499,1.6621643,2.4543037,-1.0009027
375,2026-05-11 16:09:39.813313,0.73193294,-0.19421865,2.1080499,1.6621643,2.4543037,-1.0009027
376,2026-05-11 16:09:39.815941,0.73193294,-0.19421865,2.1080499,1.6621643,2.4543037,-1.0009027
377,2026-05-11 16:09:39.819230,0.73193294,-0.19421865,2.1080499,1.6621643,2.4543037,-1.0009027
378,2026-05-11 16:09:39.821920,0.73193294,-0.19421865,2.1080499,1.6621643,2.4543037,-1.0009027
379,2026-05-11 16:09:39.824761,0.73193294,-0.19421865,2.1080499,1.6621643,2.4543037,-1.0009027
380,2026-05-11 16:09:39.827536,0.8250481,-0.21537842,2.1371367,1.8261817,2.9631546,-0.97173387
381,2026-05-11 16:09:39.830291,0.8250481,-0.21537842,2.1371367,1.8261817,2.9631546,-0.97173387
382,2026-05-11 16:09:39.832934,0.8250481,-0.21537842,2.1371367,1.8261817,2.9631546,-0.97173387
383,2026-05-11 16:09:39.836302,0.8250481,-0.21537842,2.1371367,1.8261817,2.9631546,-0.97173387
384,2026-05-11 16:09:39.839071,0.8250481,-0.21537842,2.1371367,1.8261817,2.9631546,-0.97173387
385,2026-05-11 16:09:39.841760,0.8250481,-0.21537842,2.1371367,1.8261817,2.9631546,-0.97173387
386,2026-05-11 16:09:39.844333,0.8250481,-0.21537842,2.1371367,1.8261817,2.9631546,-0.97173387
387,2026-05-11 16:09:39.847112,0.8250481,-0.21537842,2.1371367,1.8261817,2.9631546,-0.97173387
388,2026-05-11 16:09:39.849956,0.8250481,-0.21537842,2.1371367,1.8261817,2.9631546,-0.97173387
389,2026-05-11 16:09:39.852852,0.8250481,-0.21537842,2.1371367,1.8261817,2.9631546,-0.97173387
390,2026-05-11 16:09:39.855434,0.8250481,-0.21537842,2.1371367,1.8261817,2.9631546,-0.97173387
391,2026-05-11 16:09:39.858208,0.8250481,-0.21537842,2.1371367,1.8261817,2.9631546,-0.97173387
392,2026-05-11 16:09:39.860797,0.8250481,-0.21537842,2.1371367,1.8261817,2.9631546,-0.97173387
393,2026-05-11 16:09:39.863554,0.8250481,-0.21537842,2.1371367,1.8261817,2.9631546,-0.97173387
394,2026-05-11 16:09:39.866202,0.8250481,-0.21537842,2.1371367,1.8261817,2.9631546,-0.97173387
395,2026-05-11 16:09:39.869333,0.8250481,-0.21537842,2.1371367,1.8261817,2.9631546,-0.97173387
396,2026-05-11 16:09:39.871973,0.8250481,-0.21537842,2.1371367,1.8261817,2.9631546,-0.97173387
397,2026-05-11 16:09:39.874559,0.8250481,-0.21537842,2.1371367,1.8261817,2.9631546,-0.97173387
398,2026-05-11 16:09:39.877084,0.8250481,-0.21537842,2.1371367,1.8261817,2.9631546,-0.97173387
399,2026-05-11 16:09:39.879824,0.8250481,-0.21537842,2.1371367,1.8261817,2.9631546,-0.97173387
400,2026-05-11 16:09:39.882454,0.8250481,-0.21537842,2.1371367,1.8261817,2.9631546,-0.97173387
401,2026-05-11 16:09:39.885616,0.8250481,-0.21537842,2.1371367,1.8261817,2.9631546,-0.97173387
402,2026-05-11 16:09:39.888255,0.8250481,-0.21537842,2.1371367,1.8261817,2.9631546,-0.97173387
403,2026-05-11 16:09:39.890866,0.8250481,-0.21537842,2.1371367,1.8261817,2.9631546,-0.97173387
404,2026-05-11 16:09:39.893584,0.8250481,-0.21537842,2.1371367,1.8261817,2.9631546,-0.97173387
405,2026-05-11 16:09:39.896094,0.8250481,-0.21537842,2.1371367,1.8261817,2.9631546,-0.97173387
406,2026-05-11 16:09:39.898611,0.8250481,-0.21537842,2.1371367,1.8261817,2.9631546,-0.97173387
407,2026-05-11 16:09:39.901817,0.8250481,-0.21537842,2.1371367,1.8261817,2.9631546,-0.97173387
408,2026-05-11 16:09:39.904497,0.8250481,-0.21537842,2.1371367,1.8261817,2.9631546,-0.97173387
409,2026-05-11 16:09:39.907076,0.8250481,-0.21537842,2.1371367,1.8261817,2.9631546,-0.97173387
410,2026-05-11 16:09:39.909653,0.8250481,-0.21537842,2.1371367,1.8261817,2.9631546,-0.97173387
411,2026-05-11 16:09:39.912195,0.8250481,-0.21537842,2.1371367,1.8261817,2.9631546,-0.97173387
412,2026-05-11 16:09:39.914909,0.8250481,-0.21537842,2.1371367,1.8261817,2.9631546,-0.97173387
413,2026-05-11 16:09:39.917980,0.8250481,-0.21537842,2.1371367,1.8261817,2.9631546,-0.97173387
414,2026-05-11 16:09:39.920724,0.8250481,-0.21537842,2.1371367,1.8261817,2.9631546,-0.97173387
415,2026-05-11 16:09:39.923256,0.8250481,-0.21537842,2.1371367,1.8261817,2.9631546,-0.97173387
416,2026-05-11 16:09:39.925947,0.8250481,-0.21537842,2.1371367,1.8261817,2.9631546,-0.97173387
417,2026-05-11 16:09:39.928472,0.8250481,-0.21537842,2.1371367,1.8261817,2.9631546,-0.97173387
418,2026-05-11 16:09:39.931021,0.8250481,-0.21537842,2.1371367,1.8261817,2.9631546,-0.97173387
419,2026-05-11 16:09:39.934016,0.8250481,-0.21537842,2.1371367,1.8261817,2.9631546,-0.97173387
420,2026-05-11 16:09:39.936872,0.8250481,-0.21537842,2.1371367,1.8261817,2.9631546,-0.97173387
421,2026-05-11 16:09:39.939622,0.8250481,-0.21537842,2.1371367,1.8261817,2.9631546,-0.97173387
422,2026-05-11 16:09:39.942213,0.8250481,-0.21537842,2.1371367,1.8261817,2.9631546,-0.97173387
423,2026-05-11 16:09:39.945027,0.8250481,-0.21537842,2.1371367,1.8261817,2.9631546,-0.97173387
424,2026-05-11 16:09:39.947614,0.8250481,-0.21537842,2.1371367,1.8261817,2.9631546,-0.97173387
425,2026-05-11 16:09:39.950990,0.8250481,-0.21537842,2.1371367,1.8261817,2.9631546,-0.97173387
426,2026-05-11 16:09:39.953844,0.8250481,-0.21537842,2.1371367,1.8261817,2.9631546,-0.97173387
427,2026-05-11 16:09:39.956536,0.8250481,-0.21537842,2.1371367,1.8261817,2.9631546,-0.97173387
428,2026-05-11 16:09:39.959121,0.8250481,-0.21537842,2.1371367,1.8261817,2.9631546,-0.97173387
429,2026-05-11 16:09:39.962010,0.8250481,-0.21537842,2.1371367,1.8261817,2.9631546,-0.97173387
430,2026-05-11 16:09:39.964667,0.8250481,-0.21537842,2.1371367,1.8261817,2.9631546,-0.97173387
431,2026-05-11 16:09:39.967691,0.8250481,-0.21537842,2.1371367,1.8261817,2.9631546,-0.97173387
432,2026-05-11 16:09:39.970568,0.8250481,-0.21537842,2.1371367,1.8261817,2.9631546,-0.97173387
433,2026-05-11 16:09:39.973203,0.8250481,-0.21537842,2.1371367,1.8261817,2.9631546,-0.97173387
434,2026-05-11 16:09:39.975740,0.8250481,-0.21537842,2.1371367,1.8261817,2.9631546,-0.97173387
435,2026-05-11 16:09:39.978357,0.8250481,-0.21537842,2.1371367,1.8261817,2.9631546,-0.97173387
436,2026-05-11 16:09:39.980878,0.8250481,-0.21537842,2.1371367,1.8261817,2.9631546,-0.97173387
437,2026-05-11 16:09:39.983893,0.8250481,-0.21537842,2.1371367,1.8261817,2.9631546,-0.97173387
438,2026-05-11 16:09:39.986615,0.8250481,-0.21537842,2.1371367,1.8261817,2.9631546,-0.97173387
439,2026-05-11 16:09:39.989206,0.8250481,-0.21537842,2.1371367,1.8261817,2.9631546,-0.97173387
440,2026-05-11 16:09:39.992053,0.8250481,-0.21537842,2.1371367,1.8261817,2.9631546,-0.97173387
441,2026-05-11 16:09:39.994822,0.85376936,-0.24452646,2.1795175,1.9573649,3.5786014,-1.0563387
442,2026-05-11 16:09:39.997446,0.85376936,-0.24452646,2.1795175,1.9573649,3.5786014,-1.0563387
443,2026-05-11 16:09:40.000535,0.85376936,-0.24452646,2.1795175,1.9573649,3.5786014,-1.0563387
444,2026-05-11 16:09:40.003297,0.85376936,-0.24452646,2.1795175,1.9573649,3.5786014,-1.0563387
445,2026-05-11 16:09:40.005863,0.85376936,-0.24452646,2.1795175,1.9573649,3.5786014,-1.0563387
446,2026-05-11 16:09:40.008433,0.85376936,-0.24452646,2.1795175,1.9573649,3.5786014,-1.0563387
447,2026-05-11 16:09:40.010940,0.85376936,-0.24452646,2.1795175,1.9573649,3.5786014,-1.0563387
448,2026-05-11 16:09:40.013477,0.85376936,-0.24452646,2.1795175,1.9573649,3.5786014,-1.0563387
449,2026-05-11 16:09:40.016460,0.708395,-0.34642264,2.1903107,1.9573649,3.5786014,-1.0563387
450,2026-05-11 16:09:40.019417,0.708395,-0.34642264,2.1903107,1.9573649,3.5786014,-1.0563387
451,2026-05-11 16:09:40.022062,0.708395,-0.34642264,2.1903107,1.9573649,3.5786014,-1.0563387
452,2026-05-11 16:09:40.024702,0.708395,-0.34642264,2.1903107,1.9573649,3.5786014,-1.0563387
453,2026-05-11 16:09:40.027307,0.708395,-0.34642264,2.1903107,2.0877848,4.1212025,-1.042747
454,2026-05-11 16:09:40.030078,0.708395,-0.34642264,2.1903107,2.0877848,4.1212025,-1.042747
455,2026-05-11 16:09:40.032806,0.708395,-0.34642264,2.1903107,2.0877848,4.1212025,-1.042747
456,2026-05-11 16:09:40.036253,0.708395,-0.34642264,2.1903107,2.0877848,4.1212025,-1.042747
457,2026-05-11 16:09:40.039080,0.708395,-0.34642264,2.1903107,2.0877848,4.1212025,-1.042747
458,2026-05-11 16:09:40.041838,0.708395,-0.34642264,2.1903107,2.0877848,4.1212025,-1.042747
459,2026-05-11 16:09:40.044468,0.708395,-0.34642264,2.1903107,2.0877848,4.1212025,-1.042747
460,2026-05-11 16:09:40.047233,0.708395,-0.34642264,2.1903107,2.0877848,4.1212025,-1.042747
461,2026-05-11 16:09:40.049870,0.708395,-0.34642264,2.1903107,2.0877848,4.1212025,-1.042747
462,2026-05-11 16:09:40.053476,0.708395,-0.34642264,2.1903107,2.0877848,4.1212025,-1.042747
463,2026-05-11 16:09:40.056216,0.708395,-0.34642264,2.1903107,2.0877848,4.1212025,-1.042747
464,2026-05-11 16:09:40.058805,0.708395,-0.34642264,2.1903107,2.0877848,4.1212025,-1.042747
465,2026-05-11 16:09:40.061388,0.708395,-0.34642264,2.1903107,2.0877848,4.1212025,-1.042747
466,2026-05-11 16:09:40.064093,0.708395,-0.34642264,2.1903107,2.0877848,4.1212025,-1.042747
467,2026-05-11 16:09:40.066717,0.708395,-0.34642264,2.1903107,2.0877848,4.1212025,-1.042747
468,2026-05-11 16:09:40.070263,0.708395,-0.34642264,2.1903107,2.0877848,4.1212025,-1.042747
469,2026-05-11 16:09:40.073083,0.708395,-0.34642264,2.1903107,2.0877848,4.1212025,-1.042747
470,2026-05-11 16:09:40.075730,0.708395,-0.34642264,2.1903107,2.0877848,4.1212025,-1.042747
471,2026-05-11 16:09:40.078332,0.708395,-0.34642264,2.1903107,2.0877848,4.1212025,-1.042747
472,2026-05-11 16:09:40.081141,0.708395,-0.34642264,2.1903107,2.0877848,4.1212025,-1.042747
473,2026-05-11 16:09:40.084376,0.708395,-0.34642264,2.1903107,2.0877848,4.1212025,-1.042747
474,2026-05-11 16:09:40.087099,0.708395,-0.34642264,2.1903107,2.0877848,4.1212025,-1.042747
475,2026-05-11 16:09:40.089719,0.708395,-0.34642264,2.1903107,2.0877848,4.1212025,-1.042747
476,2026-05-11 16:09:40.092465,0.708395,-0.34642264,2.1903107,2.0877848,4.1212025,-1.042747
477,2026-05-11 16:09:40.095080,0.708395,-0.34642264,2.1903107,2.0877848,4.1212025,-1.042747
478,2026-05-11 16:09:40.097902,0.708395,-0.34642264,2.1903107,2.0877848,4.1212025,-1.042747
479,2026-05-11 16:09:40.100580,0.708395,-0.34642264,2.1903107,2.0877848,4.1212025,-1.042747
480,2026-05-11 16:09:40.103999,0.708395,-0.34642264,2.1903107,2.0877848,4.1212025,-1.042747
481,2026-05-11 16:09:40.106817,0.708395,-0.34642264,2.1903107,2.0877848,4.1212025,-1.042747
482,2026-05-11 16:09:40.109554,0.708395,-0.34642264,2.1903107,2.3220515,4.7488666,-0.8196284
483,2026-05-11 16:09:40.112114,0.708395,-0.34642264,2.1903107,2.3220515,4.7488666,-0.8196284
484,2026-05-11 16:09:40.114786,0.708395,-0.34642264,2.1903107,2.3220515,4.7488666,-0.8196284
485,2026-05-11 16:09:40.117529,0.60015696,-0.40880433,2.1581137,2.3220515,4.7488666,-0.8196284
486,2026-05-11 16:09:40.120801,0.60015696,-0.40880433,2.1581137,2.3220515,4.7488666,-0.8196284
487,2026-05-11 16:09:40.123583,0.60015696,-0.40880433,2.1581137,2.3220515,4.7488666,-0.8196284
488,2026-05-11 16:09:40.126186,0.60015696,-0.40880433,2.1581137,2.3220515,4.7488666,-0.8196284
489,2026-05-11 16:09:40.128731,0.60015696,-0.40880433,2.1581137,2.3220515,4.7488666,-0.8196284
490,2026-05-11 16:09:40.131572,0.60015696,-0.40880433,2.1581137,2.3220515,4.7488666,-0.8196284
491,2026-05-11 16:09:40.134728,0.60015696,-0.40880433,2.1581137,2.3220515,4.7488666,-0.8196284
492,2026-05-11 16:09:40.137453,0.60015696,-0.40880433,2.1581137,2.3220515,4.7488666,-0.8196284
493,2026-05-11 16:09:40.140057,0.60015696,-0.40880433,2.1581137,2.3220515,4.7488666,-0.8196284
494,2026-05-11 16:09:40.142635,0.60015696,-0.40880433,2.1581137,2.3220515,4.7488666,-0.8196284
495,2026-05-11 16:09:40.145450,0.60015696,-0.40880433,2.1581137,2.3220515,4.7488666,-0.8196284
496,2026-05-11 16:09:40.148140,0.60015696,-0.40880433,2.1581137,2.3220515,4.7488666,-0.8196284
497,2026-05-11 16:09:40.151215,0.60015696,-0.40880433,2.1581137,2.3220515,4.7488666,-0.8196284
498,2026-05-11 16:09:40.154119,0.60015696,-0.40880433,2.1581137,2.3220515,4.7488666,-0.8196284
499,2026-05-11 16:09:40.156857,0.60015696,-0.40880433,2.1581137,2.3220515,4.7488666,-0.8196284
500,2026-05-11 16:09:40.159459,0.60015696,-0.40880433,2.1581137,2.3220515,4.7488666,-0.8196284
501,2026-05-11 16:09:40.162064,0.60015696,-0.40880433,2.1581137,2.3220515,4.7488666,-0.8196284
502,2026-05-11 16:09:40.164626,0.60015696,-0.40880433,2.1581137,2.3220515,4.7488666,-0.8196284
503,2026-05-11 16:09:40.167638,0.60015696,-0.40880433,2.1581137,2.3220515,4.7488666,-0.8196284
504,2026-05-11 16:09:40.170359,0.60015696,-0.40880433,2.1581137,2.3220515,4.7488666,-0.8196284
505,2026-05-11 16:09:40.172956,0.60015696,-0.40880433,2.1581137,2.3220515,4.7488666,-0.8196284
506,2026-05-11 16:09:40.175664,0.60015696,-0.40880433,2.1581137,2.3220515,4.7488666,-0.8196284
507,2026-05-11 16:09:40.178273,0.60015696,-0.40880433,2.1581137,2.3220515,4.7488666,-0.8196284
508,2026-05-11 16:09:40.180846,0.60015696,-0.40880433,2.1581137,2.3220515,4.7488666,-0.8196284
509,2026-05-11 16:09:40.183934,0.60015696,-0.40880433,2.1581137,2.3220515,4.7488666,-0.8196284
510,2026-05-11 16:09:40.186742,0.60015696,-0.40880433,2.1581137,2.3220515,4.7488666,-0.8196284
511,2026-05-11 16:09:40.189402,0.60015696,-0.40880433,2.1581137,2.3220515,4.7488666,-0.8196284
512,2026-05-11 16:09:40.192095,0.60015696,-0.40880433,2.1581137,2.3220515,4.7488666,-0.8196284
513,2026-05-11 16:09:40.194805,0.60015696,-0.40880433,2.1581137,2.3220515,4.7488666,-0.8196284
514,2026-05-11 16:09:40.197572,0.60015696,-0.40880433,2.1581137,2.3220515,4.7488666,-0.8196284
515,2026-05-11 16:09:40.200529,0.60015696,-0.40880433,2.1581137,2.3220515,4.7488666,-0.8196284
516,2026-05-11 16:09:40.203430,0.66638035,-0.4200855,2.0103002,2.3220515,4.7488666,-0.8196284
517,2026-05-11 16:09:40.206045,0.66638035,-0.4200855,2.0103002,2.3220515,4.7488666,-0.8196284
518,2026-05-11 16:09:40.208799,0.66638035,-0.4200855,2.0103002,2.3220515,4.7488666,-0.8196284
519,2026-05-11 16:09:40.211450,0.66638035,-0.4200855,2.0103002,2.3220515,4.7488666,-0.8196284
520,2026-05-11 16:09:40.214033,0.66638035,-0.4200855,2.0103002,2.3220515,4.7488666,-0.8196284
521,2026-05-11 16:09:40.217057,0.66638035,-0.4200855,2.0103002,2.3220515,4.7488666,-0.8196284
522,2026-05-11 16:09:40.219854,0.66638035,-0.4200855,2.0103002,2.3220515,4.7488666,-0.8196284
523,2026-05-11 16:09:40.222656,0.66638035,-0.4200855,2.0103002,2.3220515,4.7488666,-0.8196284
524,2026-05-11 16:09:40.225366,0.66638035,-0.4200855,2.0103002,2.3220515,4.7488666,-0.8196284
525,2026-05-11 16:09:40.228152,0.71150494,-0.41282898,1.920478,3.3302846,5.3661456,-0.057268616
526,2026-05-11 16:09:40.230783,0.71150494,-0.41282898,1.920478,3.3302846,5.3661456,-0.057268616
527,2026-05-11 16:09:40.233648,0.71150494,-0.41282898,1.920478,3.3302846,5.3661456,-0.057268616
528,2026-05-11 16:09:40.236403,0.71150494,-0.41282898,1.920478,3.3302846,5.3661456,-0.057268616
529,2026-05-11 16:09:40.239185,0.71150494,-0.41282898,1.920478,3.3302846,5.3661456,-0.057268616
530,2026-05-11 16:09:40.241907,0.71150494,-0.41282898,1.920478,3.3302846,5.3661456,-0.057268616
531,2026-05-11 16:09:40.244572,0.71150494,-0.41282898,1.920478,3.3302846,5.3661456,-0.057268616
532,2026-05-11 16:09:40.247134,0.71150494,-0.41282898,1.920478,3.3302846,5.3661456,-0.057268616
533,2026-05-11 16:09:40.250237,0.71150494,-0.41282898,1.920478,3.3302846,5.3661456,-0.057268616
534,2026-05-11 16:09:40.253055,0.71150494,-0.41282898,1.920478,3.9229765,5.0481906,0.0421497
535,2026-05-11 16:09:40.255717,0.71150494,-0.41282898,1.920478,3.9229765,5.0481906,0.0421497
536,2026-05-11 16:09:40.258313,0.71150494,-0.41282898,1.920478,3.9229765,5.0481906,0.0421497
537,2026-05-11 16:09:40.260973,0.71150494,-0.41282898,1.920478,3.9229765,5.0481906,0.0421497
538,2026-05-11 16:09:40.263546,0.71150494,-0.41282898,1.920478,3.9229765,5.0481906,0.0421497
539,2026-05-11 16:09:40.266528,0.71150494,-0.41282898,1.920478,3.9229765,5.0481906,0.0421497
540,2026-05-11 16:09:40.269304,0.71150494,-0.41282898,1.920478,3.9229765,5.0481906,0.0421497
541,2026-05-11 16:09:40.272113,0.78291154,-0.39093745,1.6121062,3.9229765,5.0481906,0.0421497
542,2026-05-11 16:09:40.275035,0.78291154,-0.39093745,1.6121062,3.9229765,5.0481906,0.0421497
543,2026-05-11 16:09:40.277699,0.78291154,-0.39093745,1.6121062,3.9229765,5.0481906,0.0421497
544,2026-05-11 16:09:40.280358,0.78291154,-0.39093745,1.6121062,3.9229765,5.0481906,0.0421497
545,2026-05-11 16:09:40.283411,0.78291154,-0.39093745,1.6121062,3.9229765,5.0481906,0.0421497
546,2026-05-11 16:09:40.286365,0.78291154,-0.39093745,1.6121062,3.9229765,5.0481906,0.0421497
547,2026-05-11 16:09:40.289004,0.78291154,-0.39093745,1.6121062,3.9229765,5.0481906,0.0421497
548,2026-05-11 16:09:40.291577,0.78291154,-0.39093745,1.6121062,3.9229765,5.0481906,0.0421497
549,2026-05-11 16:09:40.294479,0.78291154,-0.39093745,1.6121062,3.9229765,5.0481906,0.0421497
550,2026-05-11 16:09:40.297202,0.78291154,-0.39093745,1.6121062,3.9229765,5.0481906,0.0421497
551,2026-05-11 16:09:40.300215,0.78291154,-0.39093745,1.6121062,3.9229765,5.0481906,0.0421497
552,2026-05-11 16:09:40.303132,0.78291154,-0.39093745,1.6121062,3.9229765,5.0481906,0.0421497
553,2026-05-11 16:09:40.305711,0.78291154,-0.39093745,1.6121062,3.9229765,5.0481906,0.0421497
554,2026-05-11 16:09:40.308306,0.78291154,-0.39093745,1.6121062,3.9229765,5.0481906,0.0421497
555,2026-05-11 16:09:40.311171,0.8002906,-0.3647774,1.4759398,4.2256603,4.6127963,0.0018325958
556,2026-05-11 16:09:40.313941,0.8002906,-0.3647774,1.4759398,4.2256603,4.6127963,0.0018325958
557,2026-05-11 16:09:40.316851,0.8002906,-0.3647774,1.4759398,4.2256603,4.6127963,0.0018325958
558,2026-05-11 16:09:40.319648,0.8002906,-0.3647774,1.4759398,4.2256603,4.6127963,0.0018325958
559,2026-05-11 16:09:40.322266,0.8002906,-0.3647774,1.4759398,4.2256603,4.6127963,0.0018325958
560,2026-05-11 16:09:40.324809,0.8002906,-0.3647774,1.4759398,4.2256603,4.6127963,0.0018325958
561,2026-05-11 16:09:40.327562,0.8002906,-0.3647774,1.4759398,4.2256603,4.6127963,0.0018325958
562,2026-05-11 16:09:40.330141,0.8002906,-0.3647774,1.4759398,4.2256603,4.6127963,0.0018325958
563,2026-05-11 16:09:40.332773,0.8002906,-0.3647774,1.4759398,4.2256603,4.6127963,0.0018325958
564,2026-05-11 16:09:40.336104,0.8002906,-0.3647774,1.4759398,4.2256603,4.6127963,0.0018325958
565,2026-05-11 16:09:40.338767,0.8002906,-0.3647774,1.4759398,4.2256603,4.6127963,0.0018325958
566,2026-05-11 16:09:40.341389,0.8002906,-0.3647774,1.4759398,4.2256603,4.6127963,0.0018325958
567,2026-05-11 16:09:40.344157,0.86547726,-0.31514034,1.3453834,4.2256603,4.6127963,0.0018325958
568,2026-05-11 16:09:40.346889,0.86547726,-0.31514034,1.3453834,4.2256603,4.6127963,0.0018325958
569,2026-05-11 16:09:40.349838,0.86547726,-0.31514034,1.3453834,4.2256603,4.6127963,0.0018325958
570,2026-05-11 16:09:40.352961,0.86547726,-0.31514034,1.3453834,4.2256603,4.6127963,0.0018325958
571,2026-05-11 16:09:40.355674,0.86547726,-0.31514034,1.3453834,4.353942,4.275751,-0.08475755
572,2026-05-11 16:09:40.358253,0.86547726,-0.31514034,1.3453834,4.353942,4.275751,-0.08475755
573,2026-05-11 16:09:40.361136,0.86547726,-0.31514034,1.3453834,4.353942,4.275751,-0.08475755
574,2026-05-11 16:09:40.363769,0.86547726,-0.31514034,1.3453834,4.353942,4.275751,-0.08475755
575,2026-05-11 16:09:40.366817,0.86547726,-0.31514034,1.3453834,4.353942,4.275751,-0.08475755
576,2026-05-11 16:09:40.369796,0.86547726,-0.31514034,1.3453834,4.353942,4.275751,-0.08475755
577,2026-05-11 16:09:40.372408,0.86547726,-0.31514034,1.3453834,4.353942,4.275751,-0.08475755
578,2026-05-11 16:09:40.375315,0.86547726,-0.31514034,1.3453834,4.353942,4.275751,-0.08475755
579,2026-05-11 16:09:40.377949,0.86547726,-0.31514034,1.3453834,4.353942,4.275751,-0.08475755
580,2026-05-11 16:09:40.380735,0.86547726,-0.31514034,1.3453834,4.353942,4.275751,-0.08475755
581,2026-05-11 16:09:40.383880,0.86547726,-0.31514034,1.3453834,4.353942,4.275751,-0.08475755
582,2026-05-11 16:09:40.386707,0.86547726,-0.31514034,1.3453834,4.353942,4.275751,-0.08475755
583,2026-05-11 16:09:40.389374,0.86547726,-0.31514034,1.3453834,4.353942,4.275751,-0.08475755
584,2026-05-11 16:09:40.391973,0.86547726,-0.31514034,1.3453834,4.353942,4.275751,-0.08475755
585,2026-05-11 16:09:40.394719,0.86547726,-0.31514034,1.3453834,4.353942,4.275751,-0.08475755
586,2026-05-11 16:09:40.397308,0.86547726,-0.31514034,1.3453834,4.353942,4.275751,-0.08475755
587,2026-05-11 16:09:40.400275,0.86547726,-0.31514034,1.3453834,4.353942,4.275751,-0.08475755
588,2026-05-11 16:09:40.403211,0.86547726,-0.31514034,1.3453834,4.353942,4.275751,-0.08475755
589,2026-05-11 16:09:40.405906,0.86547726,-0.31514034,1.3453834,4.353942,4.275751,-0.08475755
590,2026-05-11 16:09:40.408642,0.86547726,-0.31514034,1.3453834,4.353942,4.275751,-0.08475755
591,2026-05-11 16:09:40.411258,0.86547726,-0.31514034,1.3453834,4.353942,4.275751,-0.08475755
592,2026-05-11 16:09:40.414117,1.0645133,-0.24111164,1.3405051,4.2534547,3.8528798,-0.42210788
593,2026-05-11 16:09:40.416979,1.0645133,-0.24111164,1.3405051,4.2534547,3.8528798,-0.42210788
594,2026-05-11 16:09:40.420323,1.0645133,-0.24111164,1.3405051,4.2534547,3.8528798,-0.42210788
595,2026-05-11 16:09:40.423068,1.0645133,-0.24111164,1.3405051,4.2534547,3.8528798,-0.42210788
596,2026-05-11 16:09:40.425961,1.0645133,-0.24111164,1.3405051,4.2534547,3.8528798,-0.42210788
597,2026-05-11 16:09:40.428751,1.1802518,-0.19074284,1.5056976,4.2534547,3.8528798,-0.42210788
598,2026-05-11 16:09:40.431402,1.1802518,-0.19074284,1.5056976,4.2534547,3.8528798,-0.42210788
599,2026-05-11 16:09:40.434222,1.1802518,-0.19074284,1.5056976,4.2534547,3.8528798,-0.42210788
600,2026-05-11 16:09:40.437629,1.1802518,-0.19074284,1.5056976,4.2534547,3.8528798,-0.42210788
601,2026-05-11 16:09:40.440433,1.1802518,-0.19074284,1.5056976,4.2534547,3.8528798,-0.42210788
602,2026-05-11 16:09:40.443092,1.1802518,-0.19074284,1.5056976,4.2534547,3.8528798,-0.42210788
603,2026-05-11 16:09:40.445680,1.1802518,-0.19074284,1.5056976,4.2534547,3.8528798,-0.42210788
604,2026-05-11 16:09:40.448443,1.1802518,-0.19074284,1.5056976,4.2534547,3.8528798,-0.42210788
605,2026-05-11 16:09:40.451507,1.1802518,-0.19074284,1.5056976,4.2534547,3.8528798,-0.42210788
606,2026-05-11 16:09:40.454416,1.1802518,-0.19074284,1.5056976,4.2534547,3.8528798,-0.42210788
607,2026-05-11 16:09:40.457208,1.1802518,-0.19074284,1.5056976,4.044539,3.5408804,-0.82543164
608,2026-05-11 16:09:40.459953,1.2489753,-0.17872995,1.7566879,3.84952,3.371518,-1.4421002
609,2026-05-11 16:09:40.462801,1.2489753,-0.17872995,1.7566879,3.84952,3.371518,-1.4421002
610,2026-05-11 16:09:40.465397,1.2489753,-0.17872995,1.7566879,3.84952,3.371518,-1.4421002
611,2026-05-11 16:09:40.468320,1.2643421,-0.2748331,1.9040135,3.84952,3.371518,-1.4421002
612,2026-05-11 16:09:40.471212,1.2643421,-0.2748331,1.9040135,3.84952,3.371518,-1.4421002
613,2026-05-11 16:09:40.473894,1.2643421,-0.2748331,1.9040135,3.84952,3.371518,-1.4421002
614,2026-05-11 16:09:40.476671,1.2643421,-0.2748331,1.9040135,3.84952,3.371518,-1.4421002
615,2026-05-11 16:09:40.479284,1.2643421,-0.2748331,1.9040135,3.84952,3.371518,-1.4421002
616,2026-05-11 16:09:40.482097,1.2643421,-0.2748331,1.9040135,3.84952,3.371518,-1.4421002
617,2026-05-11 16:09:40.485095,1.2643421,-0.2748331,1.9040135,3.84952,3.371518,-1.4421002
618,2026-05-11 16:09:40.487813,1.2643421,-0.2748331,1.9040135,3.84952,3.371518,-1.4421002
619,2026-05-11 16:09:40.490449,1.2643421,-0.2748331,1.9040135,3.7849212,3.6940548,-1.8639026
620,2026-05-11 16:09:40.493312,1.2643421,-0.2748331,1.9040135,3.7849212,3.6940548,-1.8639026
621,2026-05-11 16:09:40.495912,1.2643421,-0.2748331,1.9040135,3.7849212,3.6940548,-1.8639026
622,2026-05-11 16:09:40.498595,1.2643421,-0.2748331,1.9040135,3.7849212,3.6940548,-1.8639026
623,2026-05-11 16:09:40.501645,1.2643421,-0.2748331,1.9040135,3.7849212,3.6940548,-1.8639026
624,2026-05-11 16:09:40.504456,1.2643421,-0.2748331,1.9040135,3.7849212,3.6940548,-1.8639026
625,2026-05-11 16:09:40.507074,1.2643421,-0.2748331,1.9040135,3.7849212,3.6940548,-1.8639026
626,2026-05-11 16:09:40.509656,1.2643421,-0.2748331,1.9040135,3.7849212,3.6940548,-1.8639026
627,2026-05-11 16:09:40.512350,1.2643421,-0.2748331,1.9040135,3.7849212,3.6940548,-1.8639026
628,2026-05-11 16:09:40.514924,1.2643421,-0.2748331,1.9040135,3.7849212,3.6940548,-1.8639026
629,2026-05-11 16:09:40.517890,1.2643421,-0.2748331,1.9040135,3.7849212,3.6940548,-1.8639026
630,2026-05-11 16:09:40.520525,1.2643421,-0.2748331,1.9040135,3.7849212,3.6940548,-1.8639026
631,2026-05-11 16:09:40.523086,1.2643421,-0.2748331,1.9040135,3.7849212,3.6940548,-1.8639026
632,2026-05-11 16:09:40.525884,1.2643421,-0.2748331,1.9040135,3.7849212,3.6940548,-1.8639026
633,2026-05-11 16:09:40.528570,1.2643421,-0.2748331,1.9040135,3.7849212,3.6940548,-1.8639026
634,2026-05-11 16:09:40.531173,1.2643421,-0.2748331,1.9040135,3.7849212,3.6940548,-1.8639026
635,2026-05-11 16:09:40.534310,1.2643421,-0.2748331,1.9040135,3.7849212,3.6940548,-1.8639026
636,2026-05-11 16:09:40.537174,1.2643421,-0.2748331,1.9040135,3.7849212,3.6940548,-1.8639026
637,2026-05-11 16:09:40.539907,1.2643421,-0.2748331,1.9040135,3.7849212,3.6940548,-1.8639026
638,2026-05-11 16:09:40.542620,1.2643421,-0.2748331,1.9040135,3.7849212,3.6940548,-1.8639026
639,2026-05-11 16:09:40.545237,1.2643421,-0.2748331,1.9040135,3.7849212,3.6940548,-1.8639026
640,2026-05-11 16:09:40.547811,1.2643421,-0.2748331,1.9040135,3.7849212,3.6940548,-1.8639026
641,2026-05-11 16:09:40.550868,1.2643421,-0.2748331,1.9040135,3.7849212,3.6940548,-1.8639026
642,2026-05-11 16:09:40.553620,1.2643421,-0.2748331,1.9040135,3.8223367,4.612338,-2.0332649
643,2026-05-11 16:09:40.556440,1.2643421,-0.2748331,1.9040135,3.8223367,4.612338,-2.0332649
644,2026-05-11 16:09:40.559064,1.2643421,-0.2748331,1.9040135,3.8223367,4.612338,-2.0332649
645,2026-05-11 16:09:40.561959,1.2198273,-0.41764635,1.9706638,3.8223367,4.612338,-2.0332649
646,2026-05-11 16:09:40.564626,1.2198273,-0.41764635,1.9706638,3.8223367,4.612338,-2.0332649
647,2026-05-11 16:09:40.567788,1.2198273,-0.41764635,1.9706638,3.8223367,4.612338,-2.0332649
648,2026-05-11 16:09:40.570560,1.2198273,-0.41764635,1.9706638,3.8223367,4.612338,-2.0332649
649,2026-05-11 16:09:40.573301,1.2198273,-0.41764635,1.9706638,3.8223367,4.612338,-2.0332649
650,2026-05-11 16:09:40.576002,1.2198273,-0.41764635,1.9706638,3.8223367,4.612338,-2.0332649
651,2026-05-11 16:09:40.578770,1.2198273,-0.41764635,1.9706638,3.8223367,4.612338,-2.0332649
652,2026-05-11 16:09:40.581403,1.2198273,-0.41764635,1.9706638,3.8223367,4.612338,-2.0332649
653,2026-05-11 16:09:40.584457,1.2198273,-0.41764635,1.9706638,3.8223367,4.612338,-2.0332649
654,2026-05-11 16:09:40.587282,1.2198273,-0.41764635,1.9706638,3.8223367,4.612338,-2.0332649
655,2026-05-11 16:09:40.589905,1.2198273,-0.41764635,1.9706638,3.8223367,4.612338,-2.0332649
656,2026-05-11 16:09:40.592500,1.2198273,-0.41764635,1.9706638,3.8223367,4.612338,-2.0332649
657,2026-05-11 16:09:40.595208,1.2198273,-0.41764635,1.9706638,3.8223367,4.612338,-2.0332649
658,2026-05-11 16:09:40.597789,1.2198273,-0.41764635,1.9706638,3.8223367,4.612338,-2.0332649
659,2026-05-11 16:09:40.600763,1.09171,-0.45264837,1.8848661,3.8223367,4.612338,-2.0332649
660,2026-05-11 16:09:40.603448,1.09171,-0.45264837,1.8848661,3.8223367,4.612338,-2.0332649
661,2026-05-11 16:09:40.606078,1.09171,-0.45264837,1.8848661,3.8223367,4.612338,-2.0332649
662,2026-05-11 16:09:40.608716,1.09171,-0.45264837,1.8848661,3.8223367,4.612338,-2.0332649
663,2026-05-11 16:09:40.611315,1.09171,-0.45264837,1.8848661,3.8223367,4.612338,-2.0332649
664,2026-05-11 16:09:40.614193,1.09171,-0.45264837,1.8848661,4.113261,5.7932935,-1.8964312
665,2026-05-11 16:09:40.617458,1.09171,-0.45264837,1.8848661,4.113261,5.7932935,-1.8964312
666,2026-05-11 16:09:40.620273,1.09171,-0.45264837,1.8848661,4.113261,5.7932935,-1.8964312
667,2026-05-11 16:09:40.622895,1.09171,-0.45264837,1.8848661,4.113261,5.7932935,-1.8964312
668,2026-05-11 16:09:40.625701,1.09171,-0.45264837,1.8848661,4.113261,5.7932935,-1.8964312
669,2026-05-11 16:09:40.628634,0.69900423,-0.65528214,1.2342794,5.152343,6.8339024,-1.2189816
670,2026-05-11 16:09:40.631252,0.69900423,-0.65528214,1.2342794,5.152343,6.8339024,-1.2189816
671,2026-05-11 16:09:40.634077,0.69900423,-0.65528214,1.2342794,5.152343,6.8339024,-1.2189816
672,2026-05-11 16:09:40.636982,0.69900423,-0.65528214,1.2342794,5.152343,6.8339024,-1.2189816
673,2026-05-11 16:09:40.639598,0.69900423,-0.65528214,1.2342794,5.152343,6.8339024,-1.2189816
674,2026-05-11 16:09:40.642362,0.69900423,-0.65528214,1.2342794,5.152343,6.8339024,-1.2189816
675,2026-05-11 16:09:40.645054,0.69900423,-0.65528214,1.2342794,5.152343,6.8339024,-1.2189816
676,2026-05-11 16:09:40.647644,0.69900423,-0.65528214,1.2342794,5.152343,6.8339024,-1.2189816
677,2026-05-11 16:09:40.650712,0.69900423,-0.65528214,1.2342794,5.152343,6.8339024,-1.2189816
678,2026-05-11 16:09:40.653394,0.69900423,-0.65528214,1.2342794,5.152343,6.8339024,-1.2189816
679,2026-05-11 16:09:40.656111,0.69900423,-0.65528214,1.2342794,5.152343,6.8339024,-1.2189816
680,2026-05-11 16:09:40.658675,0.69900423,-0.65528214,1.2342794,5.152343,6.8339024,-1.2189816
681,2026-05-11 16:09:40.661478,0.69900423,-0.65528214,1.2342794,5.152343,6.8339024,-1.2189816
682,2026-05-11 16:09:40.664204,0.69900423,-0.65528214,1.2342794,5.152343,6.8339024,-1.2189816
683,2026-05-11 16:09:40.667347,0.69900423,-0.65528214,1.2342794,5.152343,6.8339024,-1.2189816
684,2026-05-11 16:09:40.670151,0.69900423,-0.65528214,1.2342794,5.152343,6.8339024,-1.2189816
685,2026-05-11 16:09:40.672855,0.69900423,-0.65528214,1.2342794,5.152343,6.8339024,-1.2189816
686,2026-05-11 16:09:40.675452,0.69900423,-0.65528214,1.2342794,5.152343,6.8339024,-1.2189816
687,2026-05-11 16:09:40.678133,0.69900423,-0.65528214,1.2342794,5.152343,6.8339024,-1.2189816
688,2026-05-11 16:09:40.680715,0.69900423,-0.65528214,1.2342794,5.152343,6.8339024,-1.2189816
689,2026-05-11 16:09:40.683578,0.69900423,-0.65528214,1.2342794,5.152343,6.8339024,-1.2189816
690,2026-05-11 16:09:40.686296,0.69900423,-0.65528214,1.2342794,5.152343,6.8339024,-1.2189816
691,2026-05-11 16:09:40.688864,0.69900423,-0.65528214,1.2342794,5.152343,6.8339024,-1.2189816
692,2026-05-11 16:09:40.691454,0.69900423,-0.65528214,1.2342794,5.152343,6.8339024,-1.2189816
693,2026-05-11 16:09:40.693989,0.69900423,-0.65528214,1.2342794,5.152343,6.8339024,-1.2189816
694,2026-05-11 16:09:40.696529,0.69900423,-0.65528214,1.2342794,5.152343,6.8339024,-1.2189816
695,2026-05-11 16:09:40.699369,0.69900423,-0.65528214,1.2342794,5.152343,6.8339024,-1.2189816
696,2026-05-11 16:09:40.703025,0.69900423,-0.65528214,1.2342794,5.5122952,6.464329,-0.788627
697,2026-05-11 16:09:40.705902,0.6426595,-0.60308397,0.9070041,5.5122952,6.464329,-0.788627
698,2026-05-11 16:09:40.708548,0.6426595,-0.60308397,0.9070041,5.5122952,6.464329,-0.788627
699,2026-05-11 16:09:40.711147,0.6426595,-0.60308397,0.9070041,5.5122952,6.464329,-0.788627
700,2026-05-11 16:09:40.713740,0.6426595,-0.60308397,0.9070041,5.5122952,6.464329,-0.788627
701,2026-05-11 16:09:40.716755,0.6426595,-0.60308397,0.9070041,5.5122952,6.464329,-0.788627
702,2026-05-11 16:09:40.719702,0.6426595,-0.60308397,0.9070041,5.5122952,6.464329,-0.788627
703,2026-05-11 16:09:40.722538,0.6426595,-0.60308397,0.9070041,5.5122952,6.464329,-0.788627
704,2026-05-11 16:09:40.725369,0.6426595,-0.60308397,0.9070041,5.5122952,6.464329,-0.788627
705,2026-05-11 16:09:40.727992,0.6426595,-0.60308397,0.9070041,5.5122952,6.464329,-0.788627
706,2026-05-11 16:09:40.730726,0.6426595,-0.60308397,0.9070041,5.5122952,6.464329,-0.788627
707,2026-05-11 16:09:40.733596,0.7868752,-0.51765215,0.7685814,5.5122952,6.464329,-0.788627
708,2026-05-11 16:09:40.736665,0.7868752,-0.51765215,0.7685814,5.6479073,5.841552,-0.57528234
709,2026-05-11 16:09:40.739281,0.7868752,-0.51765215,0.7685814,5.6479073,5.841552,-0.57528234
710,2026-05-11 16:09:40.741862,0.7868752,-0.51765215,0.7685814,5.6479073,5.841552,-0.57528234
711,2026-05-11 16:09:40.744643,0.7868752,-0.51765215,0.7685814,5.6479073,5.841552,-0.57528234
712,2026-05-11 16:09:40.747232,0.7868752,-0.51765215,0.7685814,5.6479073,5.841552,-0.57528234
713,2026-05-11 16:09:40.750196,0.7868752,-0.51765215,0.7685814,5.6479073,5.841552,-0.57528234
714,2026-05-11 16:09:40.753024,0.7868752,-0.51765215,0.7685814,5.6479073,5.841552,-0.57528234
715,2026-05-11 16:09:40.755638,0.7868752,-0.51765215,0.7685814,5.6479073,5.841552,-0.57528234
716,2026-05-11 16:09:40.758364,0.7868752,-0.51765215,0.7685814,5.6479073,5.841552,-0.57528234
717,2026-05-11 16:09:40.761117,0.7868752,-0.51765215,0.7685814,5.6479073,5.841552,-0.57528234
718,2026-05-11 16:09:40.763796,0.7868752,-0.51765215,0.7685814,5.6479073,5.841552,-0.57528234
719,2026-05-11 16:09:40.766763,0.7868752,-0.51765215,0.7685814,5.6479073,5.841552,-0.57528234
720,2026-05-11 16:09:40.769784,0.88889337,-0.4369767,0.72193235,5.6479073,5.841552,-0.57528234
721,2026-05-11 16:09:40.772456,0.88889337,-0.4369767,0.72193235,5.6479073,5.841552,-0.57528234
722,2026-05-11 16:09:40.775085,0.88889337,-0.4369767,0.72193235,5.6479073,5.841552,-0.57528234
723,2026-05-11 16:09:40.777708,0.88889337,-0.4369767,0.72193235,5.6479073,5.841552,-0.57528234
724,2026-05-11 16:09:40.780251,0.88889337,-0.4369767,0.72193235,5.6479073,5.841552,-0.57528234
725,2026-05-11 16:09:40.783118,0.88889337,-0.4369767,0.72193235,5.6479073,5.841552,-0.57528234
726,2026-05-11 16:09:40.786115,0.88889337,-0.4369767,0.72193235,5.6479073,5.841552,-0.57528234
727,2026-05-11 16:09:40.788856,0.88889337,-0.4369767,0.72193235,5.6479073,5.841552,-0.57528234
728,2026-05-11 16:09:40.791480,0.88889337,-0.4369767,0.72193235,5.6479073,5.841552,-0.57528234
729,2026-05-11 16:09:40.794277,0.88889337,-0.4369767,0.72193235,5.6479073,5.841552,-0.57528234
730,2026-05-11 16:09:40.796865,0.88889337,-0.4369767,0.72193235,5.6479073,5.841552,-0.57528234
731,2026-05-11 16:09:40.800037,0.88889337,-0.4369767,0.72193235,5.779396,5.1413474,-0.6753115
732,2026-05-11 16:09:40.802706,0.88889337,-0.4369767,0.72193235,5.779396,5.1413474,-0.6753115
733,2026-05-11 16:09:40.805311,0.88889337,-0.4369767,0.72193235,5.779396,5.1413474,-0.6753115
734,2026-05-11 16:09:40.808043,0.88889337,-0.4369767,0.72193235,5.779396,5.1413474,-0.6753115
735,2026-05-11 16:09:40.810622,0.88889337,-0.4369767,0.72193235,5.779396,5.1413474,-0.6753115
736,2026-05-11 16:09:40.813442,0.88889337,-0.4369767,0.72193235,5.779396,5.1413474,-0.6753115
737,2026-05-11 16:09:40.816232,1.0169495,-0.4288665,0.6504648,5.936083,4.4020476,-1.212873
738,2026-05-11 16:09:40.819596,1.0169495,-0.4288665,0.6504648,5.936083,4.4020476,-1.212873
739,2026-05-11 16:09:40.822517,0.83297545,-0.5309456,0.465393,5.9918246,4.0422482,-1.7099645
740,2026-05-11 16:09:40.825201,0.83297545,-0.5309456,0.465393,5.9918246,4.0422482,-1.7099645
741,2026-05-11 16:09:40.827807,0.83297545,-0.5309456,0.465393,5.9918246,4.0422482,-1.7099645
742,2026-05-11 16:09:40.830445,0.83297545,-0.5309456,0.465393,5.9918246,4.0422482,-1.7099645
743,2026-05-11 16:09:40.833522,0.83297545,-0.5309456,0.465393,5.9918246,4.0422482,-1.7099645
744,2026-05-11 16:09:40.836556,0.83297545,-0.5309456,0.465393,5.9918246,4.0422482,-1.7099645
745,2026-05-11 16:09:40.839187,0.83297545,-0.5309456,0.465393,5.9918246,4.0422482,-1.7099645
746,2026-05-11 16:09:40.841799,0.83297545,-0.5309456,0.465393,5.9918246,4.0422482,-1.7099645
747,2026-05-11 16:09:40.844619,0.83297545,-0.5309456,0.465393,5.9918246,4.0422482,-1.7099645
748,2026-05-11 16:09:40.847271,0.83297545,-0.5309456,0.465393,5.9918246,4.0422482,-1.7099645
749,2026-05-11 16:09:40.850234,0.83297545,-0.5309456,0.465393,5.9918246,4.0422482,-1.7099645
750,2026-05-11 16:09:40.853214,0.83297545,-0.5309456,0.465393,5.9918246,4.0422482,-1.7099645
751,2026-05-11 16:09:40.855789,0.83297545,-0.5309456,0.465393,5.9918246,4.0422482,-1.7099645
752,2026-05-11 16:09:40.858559,0.83297545,-0.5309456,0.465393,5.7720656,4.361883,-1.6415477
753,2026-05-11 16:09:40.861172,0.83297545,-0.5309456,0.465393,5.7720656,4.361883,-1.6415477
754,2026-05-11 16:09:40.863876,0.83297545,-0.5309456,0.465393,5.7720656,4.361883,-1.6415477
755,2026-05-11 16:09:40.866950,0.83297545,-0.5309456,0.465393,5.7720656,4.361883,-1.6415477
756,2026-05-11 16:09:40.869878,0.83297545,-0.5309456,0.465393,5.7720656,4.361883,-1.6415477
757,2026-05-11 16:09:40.872541,0.6199752,-0.53936076,-0.087566085,5.7720656,4.361883,-1.6415477
758,2026-05-11 16:09:40.875468,0.6199752,-0.53936076,-0.087566085,5.7720656,4.361883,-1.6415477
759,2026-05-11 16:09:40.878176,0.6199752,-0.53936076,-0.087566085,5.7720656,4.361883,-1.6415477
760,2026-05-11 16:09:40.880974,0.6199752,-0.53936076,-0.087566085,5.7720656,4.361883,-1.6415477
761,2026-05-11 16:09:40.884133,0.6199752,-0.53936076,-0.087566085,5.7720656,4.361883,-1.6415477
762,2026-05-11 16:09:40.886931,0.6199752,-0.53936076,-0.087566085,5.7720656,4.361883,-1.6415477
763,2026-05-11 16:09:40.889512,0.6199752,-0.53936076,-0.087566085,5.7720656,4.361883,-1.6415477
764,2026-05-11 16:09:40.892127,0.6199752,-0.53936076,-0.087566085,5.7720656,4.361883,-1.6415477
765,2026-05-11 16:09:40.894922,0.6199752,-0.53936076,-0.087566085,5.7720656,4.361883,-1.6415477
766,2026-05-11 16:09:40.897664,0.6199752,-0.53936076,-0.087566085,5.7720656,4.361883,-1.6415477
767,2026-05-11 16:09:40.900605,0.6199752,-0.53936076,-0.087566085,5.7720656,4.361883,-1.6415477
768,2026-05-11 16:09:40.903488,0.6199752,-0.53936076,-0.087566085,5.7720656,4.361883,-1.6415477
769,2026-05-11 16:09:40.906117,0.6199752,-0.53936076,-0.087566085,5.7720656,4.361883,-1.6415477
770,2026-05-11 16:09:40.908735,0.6199752,-0.53936076,-0.087566085,5.7720656,4.361883,-1.6415477
771,2026-05-11 16:09:40.911579,0.6199752,-0.53936076,-0.087566085,5.7720656,4.361883,-1.6415477
772,2026-05-11 16:09:40.914252,0.6199752,-0.53936076,-0.087566085,5.7720656,4.361883,-1.6415477
773,2026-05-11 16:09:40.917255,0.6199752,-0.53936076,-0.087566085,5.7720656,4.361883,-1.6415477
774,2026-05-11 16:09:40.920071,0.6199752,-0.53936076,-0.087566085,5.7720656,4.361883,-1.6415477
775,2026-05-11 16:09:40.922645,0.6199752,-0.53936076,-0.087566085,5.7720656,4.361883,-1.6415477
776,2026-05-11 16:09:40.925240,0.6199752,-0.53936076,-0.087566085,5.7720656,4.361883,-1.6415477
777,2026-05-11 16:09:40.927995,0.6199752,-0.53936076,-0.087566085,5.7720656,4.361883,-1.6415477
778,2026-05-11 16:09:40.930717,0.6199752,-0.53936076,-0.087566085,5.7720656,4.361883,-1.6415477
779,2026-05-11 16:09:40.933625,0.6199752,-0.53936076,-0.087566085,5.7720656,4.361883,-1.6415477
780,2026-05-11 16:09:40.936527,0.6384519,-0.48685768,-0.2762356,4.1157045,5.2681017,-1.4582881
781,2026-05-11 16:09:40.939158,0.6384519,-0.48685768,-0.2762356,4.1157045,5.2681017,-1.4582881
782,2026-05-11 16:09:40.941757,0.56271577,-0.4334399,-0.46581987,4.1157045,5.2681017,-1.4582881
783,2026-05-11 16:09:40.944595,0.45167267,-0.37654635,-0.5629597,4.1157045,5.2681017,-1.4582881
784,2026-05-11 16:09:40.947323,0.45167267,-0.37654635,-0.5629597,4.1157045,5.2681017,-1.4582881
785,2026-05-11 16:09:40.950412,0.45167267,-0.37654635,-0.5629597,3.7717874,5.2230506,-1.4909693
786,2026-05-11 16:09:40.953178,0.45167267,-0.37654635,-0.5629597,3.7717874,5.2230506,-1.4909693
787,2026-05-11 16:09:40.955865,0.45167267,-0.37654635,-0.5629597,3.7717874,5.2230506,-1.4909693
788,2026-05-11 16:09:40.958542,0.45167267,-0.37654635,-0.5629597,3.7717874,5.2230506,-1.4909693
789,2026-05-11 16:09:40.961391,0.45167267,-0.37654635,-0.5629597,3.5043812,5.0135236,-1.521818
790,2026-05-11 16:09:40.964009,0.45167267,-0.37654635,-0.5629597,3.5043812,5.0135236,-1.521818
791,2026-05-11 16:09:40.967158,0.45167267,-0.37654635,-0.5629597,3.5043812,5.0135236,-1.521818
792,2026-05-11 16:09:40.969967,0.27977243,-0.37368035,-0.73601854,3.5043812,5.0135236,-1.521818
793,2026-05-11 16:09:40.972534,0.27977243,-0.37368035,-0.73601854,3.5043812,5.0135236,-1.521818
794,2026-05-11 16:09:40.975287,0.27977243,-0.37368035,-0.73601854,3.5043812,5.0135236,-1.521818
795,2026-05-11 16:09:40.977972,0.27977243,-0.37368035,-0.73601854,3.5043812,5.0135236,-1.521818
796,2026-05-11 16:09:40.980664,0.27977243,-0.37368035,-0.73601854,3.5043812,5.0135236,-1.521818
797,2026-05-11 16:09:40.983526,0.27977243,-0.37368035,-0.73601854,3.5043812,5.0135236,-1.521818
798,2026-05-11 16:09:40.986397,0.27977243,-0.37368035,-0.73601854,3.5043812,5.0135236,-1.521818
799,2026-05-11 16:09:40.988988,0.27977243,-0.37368035,-0.73601854,3.5043812,5.0135236,-1.521818
800,2026-05-11 16:09:40.991587,0.27977243,-0.37368035,-0.73601854,3.4028249,4.568814,-1.5137241
801,2026-05-11 16:09:40.994485,0.27977243,-0.37368035,-0.73601854,3.4028249,4.568814,-1.5137241
802,2026-05-11 16:09:40.997076,0.27977243,-0.37368035,-0.73601854,3.4028249,4.568814,-1.5137241
803,2026-05-11 16:09:41.000070,0.27977243,-0.37368035,-0.73601854,3.4028249,4.568814,-1.5137241
804,2026-05-11 16:09:41.003061,0.27977243,-0.37368035,-0.73601854,3.4028249,4.568814,-1.5137241
805,2026-05-11 16:09:41.005816,0.11921428,-0.38538834,-0.9187731,3.4028249,4.568814,-1.5137241
806,2026-05-11 16:09:41.008502,0.11921428,-0.38538834,-0.9187731,3.4028249,4.568814,-1.5137241
807,2026-05-11 16:09:41.011215,0.11921428,-0.38538834,-0.9187731,3.489415,3.808745,-1.4395039
808,2026-05-11 16:09:41.013762,0.11921428,-0.38538834,-0.9187731,3.489415,3.808745,-1.4395039
809,2026-05-11 16:09:41.016997,0.11921428,-0.38538834,-0.9187731,3.489415,3.808745,-1.4395039
810,2026-05-11 16:09:41.019739,0.11921428,-0.38538834,-0.9187731,3.489415,3.808745,-1.4395039
811,2026-05-11 16:09:41.022597,0.11921428,-0.38538834,-0.9187731,3.489415,3.808745,-1.4395039
812,2026-05-11 16:09:41.025285,0.11921428,-0.38538834,-0.9187731,3.489415,3.808745,-1.4395039
813,2026-05-11 16:09:41.027908,0.11921428,-0.38538834,-0.9187731,3.489415,3.808745,-1.4395039
814,2026-05-11 16:09:41.030518,0.11921428,-0.38538834,-0.9187731,3.489415,3.808745,-1.4395039
815,2026-05-11 16:09:41.033258,-0.08860273,-0.42051232,-1.167995,3.489415,3.808745,-1.4395039
816,2026-05-11 16:09:41.036162,-0.08860273,-0.42051232,-1.167995,3.489415,3.808745,-1.4395039
817,2026-05-11 16:09:41.038954,-0.08860273,-0.42051232,-1.167995,3.489415,3.808745,-1.4395039
818,2026-05-11 16:09:41.041581,-0.08860273,-0.42051232,-1.167995,3.489415,3.808745,-1.4395039
819,2026-05-11 16:09:41.044206,-0.08860273,-0.42051232,-1.167995,3.489415,3.808745,-1.4395039
820,2026-05-11 16:09:41.046848,-0.08860273,-0.42051232,-1.167995,3.489415,3.808745,-1.4395039
821,2026-05-11 16:09:41.049520,-0.08860273,-0.42051232,-1.167995,3.489415,3.808745,-1.4395039
822,2026-05-11 16:09:41.052661,-0.08860273,-0.42051232,-1.167995,3.489415,3.808745,-1.4395039
823,2026-05-11 16:09:41.055288,-0.08860273,-0.42051232,-1.167995,3.489415,3.808745,-1.4395039
824,2026-05-11 16:09:41.058171,-0.21208555,-0.48258913,-1.3414807,3.538437,3.2997413,-1.3078625
825,2026-05-11 16:09:41.060834,-0.21208555,-0.48258913,-1.3414807,3.538437,3.2997413,-1.3078625
826,2026-05-11 16:09:41.063587,-0.21208555,-0.48258913,-1.3414807,3.538437,3.2997413,-1.3078625
827,2026-05-11 16:09:41.066656,-0.21208555,-0.48258913,-1.3414807,3.538437,3.2997413,-1.3078625
828,2026-05-11 16:09:41.069609,-0.21208555,-0.48258913,-1.3414807,3.538437,3.2997413,-1.3078625
829,2026-05-11 16:09:41.072187,-0.21208555,-0.48258913,-1.3414807,3.538437,3.2997413,-1.3078625
830,2026-05-11 16:09:41.074835,-0.21208555,-0.48258913,-1.3414807,3.538437,3.2997413,-1.3078625
831,2026-05-11 16:09:41.077433,-0.21208555,-0.48258913,-1.3414807,3.538437,3.2997413,-1.3078625
832,2026-05-11 16:09:41.080182,-0.21208555,-0.48258913,-1.3414807,3.538437,3.2997413,-1.3078625
833,2026-05-11 16:09:41.082819,-0.21208555,-0.48258913,-1.3414807,3.538437,3.2997413,-1.3078625
834,2026-05-11 16:09:41.086139,-0.21208555,-0.48258913,-1.3414807,3.538437,3.2997413,-1.3078625
835,2026-05-11 16:09:41.088959,-0.21208555,-0.48258913,-1.3414807,3.538437,3.2997413,-1.3078625
836,2026-05-11 16:09:41.091683,-0.21208555,-0.48258913,-1.3414807,3.538437,3.2997413,-1.3078625
837,2026-05-11 16:09:41.094277,-0.21208555,-0.48258913,-1.3414807,3.538437,3.2997413,-1.3078625
838,2026-05-11 16:09:41.096950,-0.21208555,-0.48258913,-1.3414807,3.5217907,2.4807239,-0.9117164
839,2026-05-11 16:09:41.099840,-0.21208555,-0.48258913,-1.3414807,3.5217907,2.4807239,-0.9117164
840,2026-05-11 16:09:41.102957,-0.21208555,-0.48258913,-1.3414807,3.5217907,2.4807239,-0.9117164
841,2026-05-11 16:09:41.105594,-0.21208555,-0.48258913,-1.3414807,3.5217907,2.4807239,-0.9117164
842,2026-05-11 16:09:41.108454,-0.21208555,-0.48258913,-1.3414807,3.5217907,2.4807239,-0.9117164
843,2026-05-11 16:09:41.111306,-0.21208555,-0.48258913,-1.3414807,3.5217907,2.4807239,-0.9117164
844,2026-05-11 16:09:41.113994,-0.21208555,-0.48258913,-1.3414807,3.5217907,2.4807239,-0.9117164
845,2026-05-11 16:09:41.117134,-0.21208555,-0.48258913,-1.3414807,3.5217907,2.4807239,-0.9117164
846,2026-05-11 16:09:41.119962,-0.21208555,-0.48258913,-1.3414807,3.5217907,2.4807239,-0.9117164
847,2026-05-11 16:09:41.122679,-0.21208555,-0.48258913,-1.3414807,3.5217907,2.4807239,-0.9117164
848,2026-05-11 16:09:41.125447,-0.21208555,-0.48258913,-1.3414807,3.5217907,2.4807239,-0.9117164
849,2026-05-11 16:09:41.128111,-0.2947733,-0.606011,-1.6415592,3.3641877,1.9468275,-0.49281552
850,2026-05-11 16:09:41.130717,-0.2947733,-0.606011,-1.6415592,3.3641877,1.9468275,-0.49281552
851,2026-05-11 16:09:41.133877,-0.2947733,-0.606011,-1.6415592,3.3641877,1.9468275,-0.49281552
852,2026-05-11 16:09:41.136732,-0.2947733,-0.606011,-1.6415592,3.3641877,1.9468275,-0.49281552
853,2026-05-11 16:09:41.139369,-0.4177073,-0.7987051,-2.0593276,3.3641877,1.9468275,-0.49281552
854,2026-05-11 16:09:41.142162,-0.4177073,-0.7987051,-2.0593276,3.3641877,1.9468275,-0.49281552
855,2026-05-11 16:09:41.144876,-0.51679844,-0.8263287,-2.2574487,3.1859677,1.5914567,-0.17715092
856,2026-05-11 16:09:41.147647,-0.51679844,-0.8263287,-2.2574487,3.1859677,1.5914567,-0.17715092
857,2026-05-11 16:09:41.150763,-0.51679844,-0.8263287,-2.2574487,3.1859677,1.5914567,-0.17715092
858,2026-05-11 16:09:41.153597,-0.51679844,-0.8263287,-2.2574487,3.1859677,1.5914567,-0.17715092
859,2026-05-11 16:09:41.156225,-0.51679844,-0.8263287,-2.2574487,3.1859677,1.5914567,-0.17715092
860,2026-05-11 16:09:41.159181,-0.6954674,-0.80010766,-2.643203,3.1859677,1.5914567,-0.17715092
861,2026-05-11 16:09:41.161943,-0.6954674,-0.80010766,-2.643203,3.1859677,1.5914567,-0.17715092
862,2026-05-11 16:09:41.164673,-0.6954674,-0.80010766,-2.643203,3.1859677,1.5914567,-0.17715092
863,2026-05-11 16:09:41.167741,-0.6954674,-0.80010766,-2.643203,3.1859677,1.5914567,-0.17715092
864,2026-05-11 16:09:41.170490,-0.6954674,-0.80010766,-2.643203,3.1859677,1.5914567,-0.17715092
865,2026-05-11 16:09:41.173210,-0.6954674,-0.80010766,-2.643203,3.1859677,1.5914567,-0.17715092
866,2026-05-11 16:09:41.175957,-0.6954674,-0.80010766,-2.643203,3.1859677,1.5914567,-0.17715092
867,2026-05-11 16:09:41.178728,-0.6954674,-0.80010766,-2.643203,2.6360362,1.0607675,0.2779437
868,2026-05-11 16:09:41.181463,-0.6954674,-0.80010766,-2.643203,2.6360362,1.0607675,0.2779437
869,2026-05-11 16:09:41.184464,-0.6954674,-0.80010766,-2.643203,2.6360362,1.0607675,0.2779437
870,2026-05-11 16:09:41.187193,-0.6954674,-0.80010766,-2.643203,2.6360362,1.0607675,0.2779437
871,2026-05-11 16:09:41.189805,-0.6954674,-0.80010766,-2.643203,2.6360362,1.0607675,0.2779437
872,2026-05-11 16:09:41.192480,-0.6954674,-0.80010766,-2.643203,2.6360362,1.0607675,0.2779437
873,2026-05-11 16:09:41.195062,-0.6954674,-0.80010766,-2.643203,2.6360362,1.0607675,0.2779437
874,2026-05-11 16:09:41.197869,-0.6954674,-0.80010766,-2.643203,2.6360362,1.0607675,0.2779437
875,2026-05-11 16:09:41.200976,-0.6954674,-0.80010766,-2.643203,2.6360362,1.0607675,0.2779437
876,2026-05-11 16:09:41.203742,-0.6954674,-0.80010766,-2.643203,2.6360362,1.0607675,0.2779437
877,2026-05-11 16:09:41.206324,-0.6954674,-0.80010766,-2.643203,2.6360362,1.0607675,0.2779437
878,2026-05-11 16:09:41.209174,-0.7862044,-0.71845657,-2.8780339,2.6360362,1.0607675,0.2779437
879,2026-05-11 16:09:41.211782,-0.7862044,-0.71845657,-2.8780339,2.6360362,1.0607675,0.2779437
880,2026-05-11 16:09:41.214467,-0.7862044,-0.71845657,-2.8780339,2.6360362,1.0607675,0.2779437
881,2026-05-11 16:09:41.217547,-0.7862044,-0.71845657,-2.8780339,2.6360362,1.0607675,0.2779437
882,2026-05-11 16:09:41.220313,-0.7862044,-0.71845657,-2.8780339,2.6360362,1.0607675,0.2779437
883,2026-05-11 16:09:41.222871,-0.7862044,-0.71845657,-2.8780339,2.6360362,1.0607675,0.2779437
884,2026-05-11 16:09:41.225583,-0.7862044,-0.71845657,-2.8780339,2.6360362,1.0607675,0.2779437
885,2026-05-11 16:09:41.228341,-0.6773566,-0.4846624,-2.7347937,0.09483683,-0.60154957,1.1449142
886,2026-05-11 16:09:41.230937,-0.6773566,-0.4846624,-2.7347937,0.09483683,-0.60154957,1.1449142
887,2026-05-11 16:09:41.233917,-0.6773566,-0.4846624,-2.7347937,0.09483683,-0.60154957,1.1449142
888,2026-05-11 16:09:41.236628,-0.6773566,-0.4846624,-2.7347937,0.09483683,-0.60154957,1.1449142
889,2026-05-11 16:09:41.239219,-0.6773566,-0.4846624,-2.7347937,0.09483683,-0.60154957,1.1449142
890,2026-05-11 16:09:41.241915,-0.6773566,-0.4846624,-2.7347937,0.09483683,-0.60154957,1.1449142
891,2026-05-11 16:09:41.244613,-0.6773566,-0.4846624,-2.7347937,0.09483683,-0.60154957,1.1449142
892,2026-05-11 16:09:41.247459,-0.6773566,-0.4846624,-2.7347937,0.09483683,-0.60154957,1.1449142
893,2026-05-11 16:09:41.250670,-0.6773566,-0.4846624,-2.7347937,0.09483683,-0.60154957,1.1449142
894,2026-05-11 16:09:41.253518,-0.6773566,-0.4846624,-2.7347937,0.09483683,-0.60154957,1.1449142
895,2026-05-11 16:09:41.256140,-0.6773566,-0.4846624,-2.7347937,0.09483683,-0.60154957,1.1449142
896,2026-05-11 16:09:41.258910,-0.6773566,-0.4846624,-2.7347937,0.09483683,-0.60154957,1.1449142
897,2026-05-11 16:09:41.261675,-0.6773566,-0.4846624,-2.7347937,0.09483683,-0.60154957,1.1449142
898,2026-05-11 16:09:41.264339,-0.6773566,-0.4846624,-2.7347937,0.09483683,-0.60154957,1.1449142
899,2026-05-11 16:09:41.267371,-0.6773566,-0.4846624,-2.7347937,0.09483683,-0.60154957,1.1449142
900,2026-05-11 16:09:41.270189,-0.6773566,-0.4846624,-2.7347937,0.09483683,-0.60154957,1.1449142
901,2026-05-11 16:09:41.272853,-0.6773566,-0.4846624,-2.7347937,0.09483683,-0.60154957,1.1449142
902,2026-05-11 16:09:41.275519,-0.6773566,-0.4846624,-2.7347937,0.09483683,-0.60154957,1.1449142
903,2026-05-11 16:09:41.278285,-0.4973461,-0.35191077,-2.3203793,-1.1375839,-1.4486669,1.3578007
904,2026-05-11 16:09:41.281014,-0.4973461,-0.35191077,-2.3203793,-1.1375839,-1.4486669,1.3578007
905,2026-05-11 16:09:41.284113,-0.4973461,-0.35191077,-2.3203793,-1.1375839,-1.4486669,1.3578007
906,2026-05-11 16:09:41.286890,-0.4973461,-0.35191077,-2.3203793,-1.1375839,-1.4486669,1.3578007
907,2026-05-11 16:09:41.289702,-0.4973461,-0.35191077,-2.3203793,-1.1375839,-1.4486669,1.3578007
908,2026-05-11 16:09:41.292376,-0.4973461,-0.35191077,-2.3203793,-1.1375839,-1.4486669,1.3578007
909,2026-05-11 16:09:41.294944,-0.4973461,-0.35191077,-2.3203793,-1.1375839,-1.4486669,1.3578007
910,2026-05-11 16:09:41.297653,-0.4973461,-0.35191077,-2.3203793,-1.1375839,-1.4486669,1.3578007
911,2026-05-11 16:09:41.300643,-0.2833702,-0.25556368,-1.820716,-1.1375839,-1.4486669,1.3578007
912,2026-05-11 16:09:41.303388,-0.2833702,-0.25556368,-1.820716,-1.1375839,-1.4486669,1.3578007
913,2026-05-11 16:09:41.306134,-0.2833702,-0.25556368,-1.820716,-1.1375839,-1.4486669,1.3578007
914,2026-05-11 16:09:41.308826,-0.2833702,-0.25556368,-1.820716,-1.1375839,-1.4486669,1.3578007
915,2026-05-11 16:09:41.311468,-0.2833702,-0.25556368,-1.820716,-1.1375839,-1.4486669,1.3578007
916,2026-05-11 16:09:41.314051,-0.2833702,-0.25556368,-1.820716,-1.1375839,-1.4486669,1.3578007
917,2026-05-11 16:09:41.316940,-0.2833702,-0.25556368,-1.820716,-1.1375839,-1.4486669,1.3578007
918,2026-05-11 16:09:41.319748,-0.2833702,-0.25556368,-1.820716,-1.1375839,-1.4486669,1.3578007
919,2026-05-11 16:09:41.322419,-0.2833702,-0.25556368,-1.820716,-1.1375839,-1.4486669,1.3578007
920,2026-05-11 16:09:41.324993,-0.2833702,-0.25556368,-1.820716,-1.1375839,-1.4486669,1.3578007
921,2026-05-11 16:09:41.327683,-0.2833702,-0.25556368,-1.820716,-1.1375839,-1.4486669,1.3578007
922,2026-05-11 16:09:41.330266,-0.2833702,-0.25556368,-1.820716,-1.1375839,-1.4486669,1.3578007
923,2026-05-11 16:09:41.333166,-0.2833702,-0.25556368,-1.820716,-1.1375839,-1.4486669,1.3578007
924,2026-05-11 16:09:41.336387,-0.2833702,-0.25556368,-1.820716,-1.1375839,-1.4486669,1.3578007
925,2026-05-11 16:09:41.339322,-0.17257105,-0.17952266,-1.1949477,-2.737898,-2.7258334,1.2020301
926,2026-05-11 16:09:41.342054,-0.17257105,-0.17952266,-1.1949477,-3.1771102,-3.023783,1.1632402
927,2026-05-11 16:09:41.344672,-0.17257105,-0.17952266,-1.1949477,-3.1771102,-3.023783,1.1632402
928,2026-05-11 16:09:41.347334,-0.17257105,-0.17952266,-1.1949477,-3.1771102,-3.023783,1.1632402
929,2026-05-11 16:09:41.350343,-0.17257105,-0.17952266,-1.1949477,-3.1771102,-3.023783,1.1632402
930,2026-05-11 16:09:41.353420,-0.17257105,-0.17952266,-1.1949477,-3.1771102,-3.023783,1.1632402
931,2026-05-11 16:09:41.356322,-0.19330397,-0.17994952,-0.88194174,-3.1771102,-3.023783,1.1632402
932,2026-05-11 16:09:41.359109,-0.19330397,-0.17994952,-0.88194174,-3.1771102,-3.023783,1.1632402
933,2026-05-11 16:09:41.361956,-0.19330397,-0.17994952,-0.88194174,-3.1771102,-3.023783,1.1632402
934,2026-05-11 16:09:41.364726,-0.19330397,-0.17994952,-0.88194174,-3.1771102,-3.023783,1.1632402
935,2026-05-11 16:09:41.367734,-0.19330397,-0.17994952,-0.88194174,-3.1771102,-3.023783,1.1632402
936,2026-05-11 16:09:41.370624,-0.19330397,-0.17994952,-0.88194174,-3.1771102,-3.023783,1.1632402
937,2026-05-11 16:09:41.373375,-0.19330397,-0.17994952,-0.88194174,-3.1771102,-3.023783,1.1632402
938,2026-05-11 16:09:41.376044,-0.19330397,-0.17994952,-0.88194174,-3.1771102,-3.023783,1.1632402
939,2026-05-11 16:09:41.378830,-0.22153732,-0.18312044,-0.6975407,-3.1771102,-3.023783,1.1632402
940,2026-05-11 16:09:41.381578,-0.22153732,-0.18312044,-0.6975407,-3.1771102,-3.023783,1.1632402
941,2026-05-11 16:09:41.384830,-0.22153732,-0.18312044,-0.6975407,-3.1771102,-3.023783,1.1632402
942,2026-05-11 16:09:41.387611,-0.22153732,-0.18312044,-0.6975407,-3.1771102,-3.023783,1.1632402
943,2026-05-11 16:09:41.390213,-0.22153732,-0.18312044,-0.6975407,-3.1771102,-3.023783,1.1632402
944,2026-05-11 16:09:41.392951,-0.22153732,-0.18312044,-0.6975407,-3.1771102,-3.023783,1.1632402
945,2026-05-11 16:09:41.395547,-0.22153732,-0.18312044,-0.6975407,-3.5227072,-3.0990722,1.218218
946,2026-05-11 16:09:41.398262,-0.22153732,-0.18312044,-0.6975407,-3.5227072,-3.0990722,1.218218
947,2026-05-11 16:09:41.401219,-0.22153732,-0.18312044,-0.6975407,-3.5227072,-3.0990722,1.218218
948,2026-05-11 16:09:41.403951,-0.22153732,-0.18312044,-0.6975407,-3.5227072,-3.0990722,1.218218
949,2026-05-11 16:09:41.406579,-0.22153732,-0.18312044,-0.6975407,-3.5227072,-3.0990722,1.218218
950,2026-05-11 16:09:41.409166,-0.22153732,-0.18312044,-0.6975407,-3.5227072,-3.0990722,1.218218
951,2026-05-11 16:09:41.411853,-0.22153732,-0.18312044,-0.6975407,-3.5227072,-3.0990722,1.218218
952,2026-05-11 16:09:41.414367,-0.22153732,-0.18312044,-0.6975407,-3.5227072,-3.0990722,1.218218
953,2026-05-11 16:09:41.417329,-0.22153732,-0.18312044,-0.6975407,-3.5227072,-3.0990722,1.218218
954,2026-05-11 16:09:41.420160,-0.29239509,-0.25653934,-0.41904885,-4.131282,-3.0596714,1.5007432
955,2026-05-11 16:09:41.422737,-0.29239509,-0.25653934,-0.41904885,-4.131282,-3.0596714,1.5007432
956,2026-05-11 16:09:41.425257,-0.29239509,-0.25653934,-0.41904885,-4.131282,-3.0596714,1.5007432
957,2026-05-11 16:09:41.427965,-0.29239509,-0.25653934,-0.41904885,-4.131282,-3.0596714,1.5007432
958,2026-05-11 16:09:41.430618,-0.29239509,-0.25653934,-0.41904885,-4.131282,-3.0596714,1.5007432
959,2026-05-11 16:09:41.433538,-0.29239509,-0.25653934,-0.41904885,-4.131282,-3.0596714,1.5007432
960,2026-05-11 16:09:41.436613,-0.29239509,-0.25653934,-0.41904885,-4.131282,-3.0596714,1.5007432
961,2026-05-11 16:09:41.439422,-0.29239509,-0.25653934,-0.41904885,-4.131282,-3.0596714,1.5007432
962,2026-05-11 16:09:41.442119,-0.29239509,-0.25653934,-0.41904885,-4.131282,-3.0596714,1.5007432
963,2026-05-11 16:09:41.444705,-0.29239509,-0.25653934,-0.41904885,-4.131282,-3.0596714,1.5007432
964,2026-05-11 16:09:41.447454,-0.29239509,-0.25653934,-0.41904885,-4.131282,-3.0596714,1.5007432
965,2026-05-11 16:09:41.451244,-0.29239509,-0.25653934,-0.41904885,-4.131282,-3.0596714,1.5007432
966,2026-05-11 16:09:41.454129,-0.29239509,-0.25653934,-0.41904885,-4.131282,-3.0596714,1.5007432
967,2026-05-11 16:09:41.456913,-0.29239509,-0.25653934,-0.41904885,-4.131282,-3.0596714,1.5007432
968,2026-05-11 16:09:41.459577,-0.29239509,-0.25653934,-0.41904885,-4.131282,-3.0596714,1.5007432
969,2026-05-11 16:09:41.462167,-0.29239509,-0.25653934,-0.41904885,-4.131282,-3.0596714,1.5007432
970,2026-05-11 16:09:41.465104,-0.29239509,-0.25653934,-0.41904885,-4.131282,-3.0596714,1.5007432
971,2026-05-11 16:09:41.468226,-0.29239509,-0.25653934,-0.41904885,-4.131282,-3.0596714,1.5007432
972,2026-05-11 16:09:41.470986,-0.29239509,-0.25653934,-0.41904885,-4.131282,-3.0596714,1.5007432
973,2026-05-11 16:09:41.473635,-0.29239509,-0.25653934,-0.41904885,-4.131282,-3.0596714,1.5007432
974,2026-05-11 16:09:41.476417,-0.29239509,-0.25653934,-0.41904885,-4.131282,-3.0596714,1.5007432
975,2026-05-11 16:09:41.479098,-0.32233587,-0.2827604,-0.32922652,-4.293161,-3.0117183,1.6481144
976,2026-05-11 16:09:41.481848,-0.32233587,-0.2827604,-0.32922652,-4.293161,-3.0117183,1.6481144
977,2026-05-11 16:09:41.484822,-0.32233587,-0.2827604,-0.32922652,-4.556902,-2.9683468,2.0607538
978,2026-05-11 16:09:41.487677,-0.35441092,-0.30074924,-0.17940071,-4.556902,-2.9683468,2.0607538
979,2026-05-11 16:09:41.490340,-0.35441092,-0.30074924,-0.17940071,-4.556902,-2.9683468,2.0607538
980,2026-05-11 16:09:41.492946,-0.35441092,-0.30074924,-0.17940071,-4.556902,-2.9683468,2.0607538
981,2026-05-11 16:09:41.495953,-0.35441092,-0.30074924,-0.17940071,-4.556902,-2.9683468,2.0607538
982,2026-05-11 16:09:41.498784,-0.35441092,-0.30074924,-0.17940071,-4.556902,-2.9683468,2.0607538
983,2026-05-11 16:09:41.502502,-0.35441092,-0.30074924,-0.17940071,-4.556902,-2.9683468,2.0607538
984,2026-05-11 16:09:41.505884,-0.35441092,-0.30074924,-0.17940071,-4.556902,-2.9683468,2.0607538
985,2026-05-11 16:09:41.508910,-0.234221,-0.31977475,-0.010061563,-4.556902,-2.9683468,2.0607538
986,2026-05-11 16:09:41.511779,-0.234221,-0.31977475,-0.010061563,-4.556902,-2.9683468,2.0607538
987,2026-05-11 16:09:41.514652,-0.234221,-0.31977475,-0.010061563,-4.556902,-2.9683468,2.0607538
988,2026-05-11 16:09:41.517890,-0.234221,-0.31977475,-0.010061563,-4.556902,-2.9683468,2.0607538
989,2026-05-11 16:09:41.521546,-0.234221,-0.31977475,-0.010061563,-4.556902,-2.9683468,2.0607538
990,2026-05-11 16:09:41.524672,-0.234221,-0.31977475,-0.010061563,-4.556902,-2.9683468,2.0607538
991,2026-05-11 16:09:41.527685,-0.234221,-0.31977475,-0.010061563,-4.556902,-2.9683468,2.0607538
992,2026-05-11 16:09:41.530636,-0.234221,-0.31977475,-0.010061563,-4.556902,-2.9683468,2.0607538
993,2026-05-11 16:09:41.533823,-0.234221,-0.31977475,-0.010061563,-4.556902,-2.9683468,2.0607538
994,2026-05-11 16:09:41.536710,0.03561183,-0.30081022,0.19799936,-4.6880856,-3.0246992,2.4378104
995,2026-05-11 16:09:41.539406,0.03561183,-0.30081022,0.19799936,-4.6880856,-3.0246992,2.4378104
996,2026-05-11 16:09:41.542197,0.03561183,-0.30081022,0.19799936,-4.576144,-3.1627548,2.6804767
997,2026-05-11 16:09:41.544935,0.03561183,-0.30081022,0.19799936,-4.576144,-3.1627548,2.6804767
998,2026-05-11 16:09:41.547626,0.23086715,-0.2087317,0.3533133,-4.576144,-3.1627548,2.6804767
999,2026-05-11 16:09:41.550806,0.23086715,-0.2087317,0.3533133,-4.576144,-3.1627548,2.6804767
1000,2026-05-11 16:09:41.553556,0.23086715,-0.2087317,0.3533133,-4.576144,-3.1627548,2.6804767
1001,2026-05-11 16:09:41.556213,0.23086715,-0.2087317,0.3533133,-4.576144,-3.1627548,2.6804767
1002,2026-05-11 16:09:41.559096,0.30227375,-0.10171325,0.46832004,-3.7782016,-3.6969564,2.5819747
1003,2026-05-11 16:09:41.561783,0.30227375,-0.10171325,0.46832004,-3.7782016,-3.6969564,2.5819747
1004,2026-05-11 16:09:41.564628,0.30227375,-0.10171325,0.46832004,-3.7782016,-3.6969564,2.5819747
1005,2026-05-11 16:09:41.567710,0.30227375,-0.10171325,0.46832004,-3.7782016,-3.6969564,2.5819747
1006,2026-05-11 16:09:41.570510,0.30227375,-0.10171325,0.46832004,-3.7782016,-3.6969564,2.5819747
1007,2026-05-11 16:09:41.573288,0.30227375,-0.10171325,0.46832004,-3.7782016,-3.6969564,2.5819747
1008,2026-05-11 16:09:41.575920,0.30227375,-0.10171325,0.46832004,-3.7782016,-3.6969564,2.5819747
1009,2026-05-11 16:09:41.578785,0.30227375,-0.10171325,0.46832004,-3.7782016,-3.6969564,2.5819747
1010,2026-05-11 16:09:41.581480,0.30227375,-0.10171325,0.46832004,-3.7782016,-3.6969564,2.5819747
1011,2026-05-11 16:09:41.584566,0.30227375,-0.10171325,0.46832004,-3.7782016,-3.6969564,2.5819747
1012,2026-05-11 16:09:41.587320,0.30227375,-0.10171325,0.46832004,-3.7782016,-3.6969564,2.5819747
1013,2026-05-11 16:09:41.589929,0.30227375,-0.10171325,0.46832004,-3.7782016,-3.6969564,2.5819747
1014,2026-05-11 16:09:41.592782,0.30227375,-0.10171325,0.46832004,-3.7782016,-3.6969564,2.5819747
1015,2026-05-11 16:09:41.595375,0.30227375,-0.10171325,0.46832004,-3.7782016,-3.6969564,2.5819747
1016,2026-05-11 16:09:41.598079,0.30227375,-0.10171325,0.46832004,-3.7782016,-3.6969564,2.5819747
1017,2026-05-11 16:09:41.601232,0.30227375,-0.10171325,0.46832004,-3.7782016,-3.6969564,2.5819747
1018,2026-05-11 16:09:41.604037,0.30227375,-0.10171325,0.46832004,-3.7782016,-3.6969564,2.5819747
1019,2026-05-11 16:09:41.606670,0.30227375,-0.10171325,0.46832004,-3.7782016,-3.6969564,2.5819747
1020,2026-05-11 16:09:41.609282,0.30227375,-0.10171325,0.46832004,-3.7782016,-3.6969564,2.5819747
1021,2026-05-11 16:09:41.611894,0.30227375,-0.10171325,0.46832004,-3.7782016,-3.6969564,2.5819747
1022,2026-05-11 16:09:41.614770,0.30227375,-0.10171325,0.46832004,-3.7782016,-3.6969564,2.5819747
1023,2026-05-11 16:09:41.617784,0.30227375,-0.10171325,0.46832004,-3.7782016,-3.6969564,2.5819747
1024,2026-05-11 16:09:41.620582,0.30227375,-0.10171325,0.46832004,-3.7782016,-3.6969564,2.5819747
1025,2026-05-11 16:09:41.623272,0.30227375,-0.10171325,0.46832004,-3.7782016,-3.6969564,2.5819747
1026,2026-05-11 16:09:41.625866,0.30227375,-0.10171325,0.46832004,-3.7782016,-3.6969564,2.5819747
1027,2026-05-11 16:09:41.628502,0.30227375,-0.10171325,0.46832004,-3.7782016,-3.6969564,2.5819747
1028,2026-05-11 16:09:41.631092,0.30227375,-0.10171325,0.46832004,-3.7782016,-3.6969564,2.5819747
1029,2026-05-11 16:09:41.634068,0.30227375,-0.10171325,0.46832004,-3.7782016,-3.6969564,2.5819747
1030,2026-05-11 16:09:41.636834,0.30227375,-0.10171325,0.46832004,-3.7782016,-3.6969564,2.5819747
1031,2026-05-11 16:09:41.639437,0.30227375,-0.10171325,0.46832004,-3.7782016,-3.6969564,2.5819747
1032,2026-05-11 16:09:41.642030,0.30227375,-0.10171325,0.46832004,-3.7782016,-3.6969564,2.5819747
1033,2026-05-11 16:09:41.644764,0.30227375,-0.10171325,0.46832004,-3.7782016,-3.6969564,2.5819747
1034,2026-05-11 16:09:41.647351,0.30227375,-0.10171325,0.46832004,-3.7782016,-3.6969564,2.5819747
1035,2026-05-11 16:09:41.650450,0.30227375,-0.10171325,0.46832004,-3.7782016,-3.6969564,2.5819747
1036,2026-05-11 16:09:41.653339,0.30227375,-0.10171325,0.46832004,-3.7782016,-3.6969564,2.5819747
1037,2026-05-11 16:09:41.655947,0.30227375,-0.10171325,0.46832004,-3.7782016,-3.6969564,2.5819747
1038,2026-05-11 16:09:41.658505,0.30227375,-0.10171325,0.46832004,-3.7782016,-3.6969564,2.5819747
1039,2026-05-11 16:09:41.661291,0.30227375,-0.10171325,0.46832004,-3.7782016,-3.6969564,2.5819747
1040,2026-05-11 16:09:41.664043,0.35935023,-0.001097625,0.474174,-3.1458032,-4.1427355,2.3710735
1041,2026-05-11 16:09:41.667281,0.35935023,-0.001097625,0.474174,-3.1458032,-4.1427355,2.3710735
1042,2026-05-11 16:09:41.670262,0.35935023,-0.001097625,0.474174,-3.1458032,-4.1427355,2.3710735
1043,2026-05-11 16:09:41.672943,0.35935023,-0.001097625,0.474174,-3.1458032,-4.1427355,2.3710735
1044,2026-05-11 16:09:41.675534,0.35935023,-0.001097625,0.474174,-3.1458032,-4.1427355,2.3710735
1045,2026-05-11 16:09:41.678353,0.35935023,-0.001097625,0.474174,-2.905428,-4.4629817,2.283109
1046,2026-05-11 16:09:41.680945,0.35935023,-0.001097625,0.474174,-2.905428,-4.4629817,2.283109
1047,2026-05-11 16:09:41.683889,0.35935023,-0.001097625,0.474174,-2.905428,-4.4629817,2.283109
1048,2026-05-11 16:09:41.686580,0.35935023,-0.001097625,0.474174,-2.905428,-4.4629817,2.283109
1049,2026-05-11 16:09:41.689310,0.3217871,0.029452939,0.441977,-2.905428,-4.4629817,2.283109
1050,2026-05-11 16:09:41.692105,0.3217871,0.029452939,0.441977,-2.905428,-4.4629817,2.283109
1051,2026-05-11 16:09:41.694733,0.3217871,0.029452939,0.441977,-2.905428,-4.4629817,2.283109
1052,2026-05-11 16:09:41.697548,0.3217871,0.029452939,0.441977,-2.905428,-4.4629817,2.283109
1053,2026-05-11 16:09:41.700897,0.3217871,0.029452939,0.441977,-2.905428,-4.4629817,2.283109
1054,2026-05-11 16:09:41.703717,0.3217871,0.029452939,0.441977,-2.905428,-4.4629817,2.283109
1055,2026-05-11 16:09:41.706583,0.3217871,0.029452939,0.441977,-2.905428,-4.4629817,2.283109
1056,2026-05-11 16:09:41.709238,0.3217871,0.029452939,0.441977,-2.905428,-4.4629817,2.283109
1057,2026-05-11 16:09:41.711825,0.3217871,0.029452939,0.441977,-2.905428,-4.4629817,2.283109
1058,2026-05-11 16:09:41.714629,0.3217871,0.029452939,0.441977,-2.905428,-4.4629817,2.283109
1059,2026-05-11 16:09:41.717654,0.3217871,0.029452939,0.441977,-2.905428,-4.4629817,2.283109
1060,2026-05-11 16:09:41.720465,0.3217871,0.029452939,0.441977,-2.905428,-4.4629817,2.283109
1061,2026-05-11 16:09:41.723080,0.3217871,0.029452939,0.441977,-2.905428,-4.4629817,2.283109
1062,2026-05-11 16:09:41.725800,0.3217871,0.029452939,0.441977,-2.9109256,-4.684115,2.3115141
1063,2026-05-11 16:09:41.728442,0.3217871,0.029452939,0.441977,-2.9109256,-4.684115,2.3115141
1064,2026-05-11 16:09:41.731044,0.3217871,0.029452939,0.441977,-2.9109256,-4.684115,2.3115141
1065,2026-05-11 16:09:41.734298,0.3217871,0.029452939,0.441977,-2.9109256,-4.684115,2.3115141
1066,2026-05-11 16:09:41.737210,0.3217871,0.029452939,0.441977,-2.9109256,-4.684115,2.3115141
1067,2026-05-11 16:09:41.739971,0.3217871,0.029452939,0.441977,-2.9109256,-4.684115,2.3115141
1068,2026-05-11 16:09:41.742566,0.3217871,0.029452939,0.441977,-2.9109256,-4.684115,2.3115141
1069,2026-05-11 16:09:41.745290,0.3217871,0.029452939,0.441977,-2.9109256,-4.684115,2.3115141
1070,2026-05-11 16:09:41.747954,0.3217871,0.029452939,0.441977,-2.9109256,-4.684115,2.3115141
1071,2026-05-11 16:09:41.751131,0.3217871,0.029452939,0.441977,-2.9109256,-4.684115,2.3115141
1072,2026-05-11 16:09:41.753818,0.3217871,0.029452939,0.441977,-2.9109256,-4.684115,2.3115141
1073,2026-05-11 16:09:41.756432,0.3217871,0.029452939,0.441977,-2.9109256,-4.684115,2.3115141
1074,2026-05-11 16:09:41.759029,0.3217871,0.029452939,0.441977,-2.9109256,-4.684115,2.3115141
1075,2026-05-11 16:09:41.761589,0.3217871,0.029452939,0.441977,-2.9109256,-4.684115,2.3115141
1076,2026-05-11 16:09:41.764344,0.3217871,0.029452939,0.441977,-2.9109256,-4.684115,2.3115141
1077,2026-05-11 16:09:41.767248,0.3217871,0.029452939,0.441977,-2.9109256,-4.684115,2.3115141
1078,2026-05-11 16:09:41.770202,0.304408,0.014878917,0.59180284,-2.9969049,-4.716185,2.435978
1079,2026-05-11 16:09:41.772831,0.304408,0.014878917,0.59180284,-2.9969049,-4.716185,2.435978
1080,2026-05-11 16:09:41.775419,0.304408,0.014878917,0.59180284,-2.9969049,-4.716185,2.435978
1081,2026-05-11 16:09:41.778241,0.304408,0.014878917,0.59180284,-2.9969049,-4.716185,2.435978
1082,2026-05-11 16:09:41.780876,0.304408,0.014878917,0.59180284,-2.9969049,-4.716185,2.435978
1083,2026-05-11 16:09:41.783793,0.304408,0.014878917,0.59180284,-2.9969049,-4.716185,2.435978
1084,2026-05-11 16:09:41.786750,0.304408,0.014878917,0.59180284,-2.9969049,-4.716185,2.435978
1085,2026-05-11 16:09:41.789535,0.304408,0.014878917,0.59180284,-2.9969049,-4.716185,2.435978
1086,2026-05-11 16:09:41.792171,0.304408,0.014878917,0.59180284,-2.9969049,-4.716185,2.435978
1087,2026-05-11 16:09:41.794945,0.304408,0.014878917,0.59180284,-2.9969049,-4.716185,2.435978
1088,2026-05-11 16:09:41.797639,0.30257863,-0.0070126047,0.7446166,-2.9969049,-4.716185,2.435978
1089,2026-05-11 16:09:41.800717,0.30257863,-0.0070126047,0.7446166,-2.9969049,-4.716185,2.435978
1090,2026-05-11 16:09:41.803521,0.30257863,-0.0070126047,0.7446166,-2.9969049,-4.716185,2.435978
1091,2026-05-11 16:09:41.806308,0.30257863,-0.0070126047,0.7446166,-2.9969049,-4.716185,2.435978
1092,2026-05-11 16:09:41.808897,0.30257863,-0.0070126047,0.7446166,-2.9969049,-4.716185,2.435978
1093,2026-05-11 16:09:41.811740,0.30257863,-0.0070126047,0.7446166,-2.9969049,-4.716185,2.435978
1094,2026-05-11 16:09:41.814328,0.30257863,-0.0070126047,0.7446166,-2.9969049,-4.716185,2.435978
1095,2026-05-11 16:09:41.817365,0.30257863,-0.0070126047,0.7446166,-2.9969049,-4.716185,2.435978
1096,2026-05-11 16:09:41.820195,0.30257863,-0.0070126047,0.7446166,-2.9969049,-4.716185,2.435978
1097,2026-05-11 16:09:41.822846,0.30257863,-0.0070126047,0.7446166,-2.9969049,-4.716185,2.435978
1098,2026-05-11 16:09:41.825445,0.30257863,-0.0070126047,0.7446166,-2.9969049,-4.716185,2.435978
1099,2026-05-11 16:09:41.828098,0.30257863,-0.0070126047,0.7446166,-2.9969049,-4.716185,2.435978
1100,2026-05-11 16:09:41.830667,0.30257863,-0.0070126047,0.7446166,-2.9969049,-4.716185,2.435978
1101,2026-05-11 16:09:41.833783,0.30257863,-0.0070126047,0.7446166,-3.1600058,-4.3811255,2.7693577
1102,2026-05-11 16:09:41.836663,0.30257863,-0.0070126047,0.7446166,-3.1600058,-4.3811255,2.7693577
1103,2026-05-11 16:09:41.839417,0.30257863,-0.0070126047,0.7446166,-3.1600058,-4.3811255,2.7693577
1104,2026-05-11 16:09:41.842237,0.30257863,-0.0070126047,0.7446166,-3.1600058,-4.3811255,2.7693577
1105,2026-05-11 16:09:41.844936,0.30257863,-0.0070126047,0.7446166,-3.1600058,-4.3811255,2.7693577
1106,2026-05-11 16:09:41.847555,0.30257863,-0.0070126047,0.7446166,-3.1600058,-4.3811255,2.7693577
1107,2026-05-11 16:09:41.850872,0.30257863,-0.0070126047,0.7446166,-3.1600058,-4.3811255,2.7693577
1108,2026-05-11 16:09:41.853698,0.30257863,-0.0070126047,0.7446166,-3.1600058,-4.3811255,2.7693577
1109,2026-05-11 16:09:41.856403,0.30257863,-0.0070126047,0.7446166,-3.1600058,-4.3811255,2.7693577
1110,2026-05-11 16:09:41.859173,0.30257863,-0.0070126047,0.7446166,-3.1600058,-4.3811255,2.7693577
1111,2026-05-11 16:09:41.861897,0.30257863,-0.0070126047,0.7446166,-3.1600058,-4.3811255,2.7693577
1112,2026-05-11 16:09:41.864561,0.30257863,-0.0070126047,0.7446166,-3.1600058,-4.3811255,2.7693577
1113,2026-05-11 16:09:41.867511,0.30257863,-0.0070126047,0.7446166,-3.1600058,-4.3811255,2.7693577
1114,2026-05-11 16:09:41.870208,0.30257863,-0.0070126047,0.7446166,-3.1600058,-4.3811255,2.7693577
1115,2026-05-11 16:09:41.872740,0.30257863,-0.0070126047,0.7446166,-3.1600058,-4.3811255,2.7693577
1116,2026-05-11 16:09:41.875534,0.30257863,-0.0070126047,0.7446166,-3.1600058,-4.3811255,2.7693577
1117,2026-05-11 16:09:41.878247,0.30257863,-0.0070126047,0.7446166,-3.1600058,-4.3811255,2.7693577
1118,2026-05-11 16:09:41.880845,0.30257863,-0.0070126047,0.7446166,-3.1600058,-4.3811255,2.7693577
1119,2026-05-11 16:09:41.883803,0.30257863,-0.0070126047,0.7446166,-3.1600058,-4.3811255,2.7693577
1120,2026-05-11 16:09:41.886472,0.30257863,-0.0070126047,0.7446166,-3.1600058,-4.3811255,2.7693577
1121,2026-05-11 16:09:41.889270,0.30257863,-0.0070126047,0.7446166,-3.1600058,-4.3811255,2.7693577
1122,2026-05-11 16:09:41.891954,0.30020046,0.041221917,0.92438316,-3.681074,-3.343571,3.520722
1123,2026-05-11 16:09:41.894548,0.30020046,0.041221917,0.92438316,-3.681074,-3.343571,3.520722
1124,2026-05-11 16:09:41.923352,0.8998086,0.45813647,1.7283325,4.797583,0.44058657,-2.5404358
1125,2026-05-11 16:09:41.927977,0.8998086,0.45813647,1.7283325,4.797583,0.44058657,-2.5404358
1126,2026-05-11 16:09:41.934124,0.8998086,0.45813647,1.7283325,4.797583,0.44058657,-2.5404358
1127,2026-05-11 16:09:41.936998,0.8998086,0.45813647,1.7283325,4.797583,0.44058657,-2.5404358
1128,2026-05-11 16:09:41.939608,0.8998086,0.45813647,1.7283325,4.797583,0.44058657,-2.5404358
1129,2026-05-11 16:09:41.942220,0.8998086,0.45813647,1.7283325,4.797583,0.44058657,-2.5404358
1130,2026-05-11 16:09:41.944961,0.8998086,0.45813647,1.7283325,4.797583,0.44058657,-2.5404358
1131,2026-05-11 16:09:41.947737,0.8998086,0.45813647,1.7283325,4.797583,0.44058657,-2.5404358
1132,2026-05-11 16:09:41.950657,0.8998086,0.45813647,1.7283325,4.797583,0.44058657,-2.5404358
1133,2026-05-11 16:09:41.953600,1.4767325,0.60119367,1.6438764,5.246416,0.4914411,-2.5286767
1134,2026-05-11 16:09:41.956249,1.4767325,0.60119367,1.6438764,5.246416,0.4914411,-2.5286767
1135,2026-05-11 16:09:41.958858,1.4767325,0.60119367,1.6438764,5.246416,0.4914411,-2.5286767
1136,2026-05-11 16:09:41.961595,1.4767325,0.60119367,1.6438764,5.246416,0.4914411,-2.5286767
1137,2026-05-11 16:09:41.964168,1.4767325,0.60119367,1.6438764,5.246416,0.4914411,-2.5286767
1138,2026-05-11 16:09:41.967065,1.4767325,0.60119367,1.6438764,5.246416,0.4914411,-2.5286767
1139,2026-05-11 16:09:41.969910,1.4767325,0.60119367,1.6438764,5.246416,0.4914411,-2.5286767
1140,2026-05-11 16:09:41.972525,1.4767325,0.60119367,1.6438764,5.3484306,0.43661594,-2.7003298
1141,2026-05-11 16:09:41.975134,1.4767325,0.60119367,1.6438764,5.3484306,0.43661594,-2.7003298
1142,2026-05-11 16:09:41.977739,1.4767325,0.60119367,1.6438764,5.3484306,0.43661594,-2.7003298
1143,2026-05-11 16:09:41.980643,1.4767325,0.60119367,1.6438764,5.3484306,0.43661594,-2.7003298
1144,2026-05-11 16:09:41.983772,1.4767325,0.60119367,1.6438764,5.3484306,0.43661594,-2.7003298
1145,2026-05-11 16:09:41.986747,1.4767325,0.60119367,1.6438764,5.3484306,0.43661594,-2.7003298
1146,2026-05-11 16:09:41.989442,1.4767325,0.60119367,1.6438764,5.3484306,0.43661594,-2.7003298
1147,2026-05-11 16:09:41.992094,1.4767325,0.60119367,1.6438764,5.3484306,0.43661594,-2.7003298
1148,2026-05-11 16:09:41.994836,1.4767325,0.60119367,1.6438764,5.3484306,0.43661594,-2.7003298
1149,2026-05-11 16:09:41.997720,1.9581021,0.7065656,1.5033804,5.700136,0.30192015,-3.8088975
1150,2026-05-11 16:09:42.000761,1.9581021,0.7065656,1.5033804,5.700136,0.30192015,-3.8088975
1151,2026-05-11 16:09:42.003521,1.9581021,0.7065656,1.5033804,5.700136,0.30192015,-3.8088975
1152,2026-05-11 16:09:42.006160,1.9581021,0.7065656,1.5033804,5.700136,0.30192015,-3.8088975
1153,2026-05-11 16:09:42.008715,1.9581021,0.7065656,1.5033804,5.700136,0.30192015,-3.8088975
1154,2026-05-11 16:09:42.011404,1.9581021,0.7065656,1.5033804,5.700136,0.30192015,-3.8088975
1155,2026-05-11 16:09:42.013971,1.9581021,0.7065656,1.5033804,5.700136,0.30192015,-3.8088975
1156,2026-05-11 16:09:42.017131,1.756383,0.6823569,1.3968499,5.700136,0.30192015,-3.8088975
1157,2026-05-11 16:09:42.019937,1.756383,0.6823569,1.3968499,5.700136,0.30192015,-3.8088975
1158,2026-05-11 16:09:42.022834,1.756383,0.6823569,1.3968499,5.7590847,0.3313944,-4.4461827
1159,2026-05-11 16:09:42.025455,1.756383,0.6823569,1.3968499,5.7590847,0.3313944,-4.4461827
1160,2026-05-11 16:09:42.028019,1.756383,0.6823569,1.3968499,5.7590847,0.3313944,-4.4461827
1161,2026-05-11 16:09:42.030739,1.756383,0.6823569,1.3968499,5.7590847,0.3313944,-4.4461827
1162,2026-05-11 16:09:42.033692,1.756383,0.6823569,1.3968499,5.7590847,0.3313944,-4.4461827
1163,2026-05-11 16:09:42.036619,1.756383,0.6823569,1.3968499,5.7590847,0.3313944,-4.4461827
1164,2026-05-11 16:09:42.039297,1.756383,0.6823569,1.3968499,5.7590847,0.3313944,-4.4461827
1165,2026-05-11 16:09:42.041949,1.756383,0.6823569,1.3968499,5.7590847,0.3313944,-4.4461827
1166,2026-05-11 16:09:42.044654,1.5376507,0.6126577,1.2473289,5.6279016,0.52626044,-4.6723557
1167,2026-05-11 16:09:42.047222,1.5376507,0.6126577,1.2473289,5.6279016,0.52626044,-4.6723557
1168,2026-05-11 16:09:42.050037,1.5376507,0.6126577,1.2473289,5.6279016,0.52626044,-4.6723557
1169,2026-05-11 16:09:42.052965,1.577775,0.5930224,1.2119,5.6279016,0.52626044,-4.6723557
1170,2026-05-11 16:09:42.055520,1.577775,0.5930224,1.2119,5.6279016,0.52626044,-4.6723557
1171,2026-05-11 16:09:42.058172,1.577775,0.5930224,1.2119,5.6279016,0.52626044,-4.6723557
1172,2026-05-11 16:09:42.060803,1.577775,0.5930224,1.2119,5.6279016,0.52626044,-4.6723557
1173,2026-05-11 16:09:42.063483,1.577775,0.5930224,1.2119,5.6279016,0.52626044,-4.6723557
1174,2026-05-11 16:09:42.066202,1.577775,0.5930224,1.2119,5.429523,0.8565858,-4.7823114
1175,2026-05-11 16:09:42.069376,1.6954038,0.60558414,1.1836666,5.2775702,1.2415836,-5.022534
1176,2026-05-11 16:09:42.072066,1.6954038,0.60558414,1.1836666,5.2775702,1.2415836,-5.022534
1177,2026-05-11 16:09:42.074795,1.6954038,0.60558414,1.1836666,5.4177637,1.3326025,-5.4420457
1178,2026-05-11 16:09:42.077387,1.6954038,0.60558414,1.1836666,5.4177637,1.3326025,-5.4420457
1179,2026-05-11 16:09:42.080118,1.6954038,0.60558414,1.1836666,5.4177637,1.3326025,-5.4420457
1180,2026-05-11 16:09:42.082848,1.7266251,0.5389339,1.214766,5.4177637,1.3326025,-5.4420457
1181,2026-05-11 16:09:42.086067,1.7266251,0.5389339,1.214766,5.4177637,1.3326025,-5.4420457
1182,2026-05-11 16:09:42.088728,1.7266251,0.5389339,1.214766,5.4177637,1.3326025,-5.4420457
1183,2026-05-11 16:09:42.091364,1.7266251,0.5389339,1.214766,5.4177637,1.3326025,-5.4420457
1184,2026-05-11 16:09:42.094073,1.2781844,0.21830542,0.8494398,6.104987,0.9841039,-5.896224
1185,2026-05-11 16:09:42.096880,1.2781844,0.21830542,0.8494398,6.104987,0.9841039,-5.896224
1186,2026-05-11 16:09:42.099904,1.2781844,0.21830542,0.8494398,6.104987,0.9841039,-5.896224
1187,2026-05-11 16:09:42.102772,1.288063,0.17141244,0.58546096,6.104987,0.9841039,-5.896224
1188,2026-05-11 16:09:42.105473,1.288063,0.17141244,0.58546096,6.181498,0.7481572,-5.934098
1189,2026-05-11 16:09:42.108073,1.288063,0.17141244,0.58546096,6.181498,0.7481572,-5.934098
1190,2026-05-11 16:09:42.110929,1.308308,0.17714448,0.4911262,6.181498,0.7481572,-5.934098
1191,2026-05-11 16:09:42.113644,1.308308,0.17714448,0.4911262,6.181498,0.7481572,-5.934098
1192,2026-05-11 16:09:42.116686,1.308308,0.17714448,0.4911262,6.168212,0.59971696,-5.9869375
1193,2026-05-11 16:09:42.119732,1.308308,0.17714448,0.4911262,6.168212,0.59971696,-5.9869375
1194,2026-05-11 16:09:42.122433,1.308308,0.17714448,0.4911262,6.168212,0.59971696,-5.9869375
1195,2026-05-11 16:09:42.125031,1.308308,0.17714448,0.4911262,6.168212,0.59971696,-5.9869375
1196,2026-05-11 16:09:42.127849,1.3386757,0.15726528,0.21269535,6.168212,0.59971696,-5.9869375
1197,2026-05-11 16:09:42.130452,1.3386757,0.15726528,0.21269535,6.168212,0.59971696,-5.9869375
1198,2026-05-11 16:09:42.133410,1.3386757,0.15726528,0.21269535,6.168212,0.59971696,-5.9869375
1199,2026-05-11 16:09:42.136276,1.3386757,0.15726528,0.21269535,6.168212,0.59971696,-5.9869375
1200,2026-05-11 16:09:42.138850,1.3386757,0.15726528,0.21269535,6.168212,0.59971696,-5.9869375
1201,2026-05-11 16:09:42.141448,1.3386757,0.15726528,0.21269535,6.168212,0.59971696,-5.9869375
1202,2026-05-11 16:09:42.144059,1.3386757,0.15726528,0.21269535,6.168212,0.59971696,-5.9869375
1203,2026-05-11 16:09:42.146738,1.3386757,0.15726528,0.21269535,5.775731,-0.017104227,-6.3756003
1204,2026-05-11 16:09:42.149418,1.3386757,0.15726528,0.21269535,5.775731,-0.017104227,-6.3756003
1205,2026-05-11 16:09:42.152748,1.3109912,0.16061912,0.1565945,5.775731,-0.017104227,-6.3756003
1206,2026-05-11 16:09:42.155643,1.3109912,0.16061912,0.1565945,5.775731,-0.017104227,-6.3756003
1207,2026-05-11 16:09:42.158367,1.3109912,0.16061912,0.1565945,5.775731,-0.017104227,-6.3756003
1208,2026-05-11 16:09:42.160973,1.3109912,0.16061912,0.1565945,5.775731,-0.017104227,-6.3756003
1209,2026-05-11 16:09:42.163696,1.3109912,0.16061912,0.1565945,5.775731,-0.017104227,-6.3756003
1210,2026-05-11 16:09:42.166722,1.3109912,0.16061912,0.1565945,5.4641895,-0.2452624,-6.586044
1211,2026-05-11 16:09:42.169773,1.3109912,0.16061912,0.1565945,5.4641895,-0.2452624,-6.586044
1212,2026-05-11 16:09:42.172518,1.3109912,0.16061912,0.1565945,5.4641895,-0.2452624,-6.586044
1213,2026-05-11 16:09:42.175289,1.1457375,0.16336319,0.10287185,5.4641895,-0.2452624,-6.586044
1214,2026-05-11 16:09:42.177979,1.1457375,0.16336319,0.10287185,5.4641895,-0.2452624,-6.586044
1215,2026-05-11 16:09:42.180635,1.1457375,0.16336319,0.10287185,5.4641895,-0.2452624,-6.586044
1216,2026-05-11 16:09:42.183609,1.1457375,0.16336319,0.10287185,5.4641895,-0.2452624,-6.586044
1217,2026-05-11 16:09:42.186648,1.1457375,0.16336319,0.10287185,5.0071096,-0.46196684,-6.747312
1218,2026-05-11 16:09:42.189396,1.1457375,0.16336319,0.10287185,5.0071096,-0.46196684,-6.747312
1219,2026-05-11 16:09:42.191987,1.1457375,0.16336319,0.10287185,5.0071096,-0.46196684,-6.747312
1220,2026-05-11 16:09:42.194864,1.1457375,0.16336319,0.10287185,5.0071096,-0.46196684,-6.747312
1221,2026-05-11 16:09:42.197563,0.8970645,0.16836348,0.0048783333,4.394412,-0.48090366,-6.6008573
1222,2026-05-11 16:09:42.200470,0.8970645,0.16836348,0.0048783333,4.394412,-0.48090366,-6.6008573
1223,2026-05-11 16:09:42.203320,0.8970645,0.16836348,0.0048783333,4.394412,-0.48090366,-6.6008573
1224,2026-05-11 16:09:42.206105,0.83023137,0.17812014,0.000365875,3.8408153,-0.37766743,-6.3751426
1225,2026-05-11 16:09:42.208698,0.83023137,0.17812014,0.000365875,3.8408153,-0.37766743,-6.3751426
1226,2026-05-11 16:09:42.211322,0.83023137,0.17812014,0.000365875,3.8408153,-0.37766743,-6.3751426
1227,2026-05-11 16:09:42.213872,0.83023137,0.17812014,0.000365875,3.8408153,-0.37766743,-6.3751426
1228,2026-05-11 16:09:42.216895,0.83023137,0.17812014,0.000365875,3.8408153,-0.37766743,-6.3751426
1229,2026-05-11 16:09:42.219715,0.83023137,0.17812014,0.000365875,3.8408153,-0.37766743,-6.3751426
1230,2026-05-11 16:09:42.222324,0.83023137,0.17812014,0.000365875,3.8408153,-0.37766743,-6.3751426
1231,2026-05-11 16:09:42.225057,0.83023137,0.17812014,0.000365875,3.8408153,-0.37766743,-6.3751426
1232,2026-05-11 16:09:42.227847,0.83023137,0.17812014,0.000365875,3.8408153,-0.37766743,-6.3751426
1233,2026-05-11 16:09:42.230547,0.85444015,0.19165753,0.07207738,3.2420146,-0.15134187,-6.109111
1234,2026-05-11 16:09:42.233663,0.85444015,0.19165753,0.07207738,3.2420146,-0.15134187,-6.109111
1235,2026-05-11 16:09:42.236592,0.85444015,0.19165753,0.07207738,3.2420146,-0.15134187,-6.109111
1236,2026-05-11 16:09:42.239286,0.85444015,0.19165753,0.07207738,3.2420146,-0.15134187,-6.109111
1237,2026-05-11 16:09:42.242003,0.85444015,0.19165753,0.07207738,3.2420146,-0.15134187,-6.109111
1238,2026-05-11 16:09:42.244716,0.85444015,0.19165753,0.07207738,3.2420146,-0.15134187,-6.109111
1239,2026-05-11 16:09:42.247309,0.85444015,0.19165753,0.07207738,3.2420146,-0.15134187,-6.109111
1240,2026-05-11 16:09:42.250167,0.85444015,0.19165753,0.07207738,3.2420146,-0.15134187,-6.109111
1241,2026-05-11 16:09:42.253201,0.85444015,0.19165753,0.07207738,3.2420146,-0.15134187,-6.109111
1242,2026-05-11 16:09:42.255969,0.85444015,0.19165753,0.07207738,2.8067732,0.057421334,-6.0962825
1243,2026-05-11 16:09:42.258652,0.85444015,0.19165753,0.07207738,2.8067732,0.057421334,-6.0962825
1244,2026-05-11 16:09:42.261242,0.85444015,0.19165753,0.07207738,2.8067732,0.057421334,-6.0962825
1245,2026-05-11 16:09:42.264102,1.0515248,0.1364104,0.10293283,2.496148,0.1742493,-6.2838182
1246,2026-05-11 16:09:42.267211,1.0515248,0.1364104,0.10293283,2.496148,0.1742493,-6.2838182
1247,2026-05-11 16:09:42.270170,1.0515248,0.1364104,0.10293283,2.3330472,0.19990565,-6.338185
1248,2026-05-11 16:09:42.272902,1.0515248,0.1364104,0.10293283,2.3330472,0.19990565,-6.338185
1249,2026-05-11 16:09:42.275624,0.8202307,-0.023537958,0.15415533,2.3330472,0.19990565,-6.338185
1250,2026-05-11 16:09:42.278227,0.8202307,-0.023537958,0.15415533,2.3330472,0.19990565,-6.338185
1251,2026-05-11 16:09:42.280951,0.8202307,-0.023537958,0.15415533,2.3330472,0.19990565,-6.338185
1252,2026-05-11 16:09:42.284098,0.8202307,-0.023537958,0.15415533,2.3330472,0.19990565,-6.338185
1253,2026-05-11 16:09:42.286998,0.8202307,-0.023537958,0.15415533,2.3330472,0.19990565,-6.338185
1254,2026-05-11 16:09:42.289734,0.8202307,-0.023537958,0.15415533,2.3330472,0.19990565,-6.338185
1255,2026-05-11 16:09:42.292415,0.8202307,-0.023537958,0.15415533,2.3330472,0.19990565,-6.338185
1256,2026-05-11 16:09:42.295004,0.8202307,-0.023537958,0.15415533,2.3330472,0.19990565,-6.338185
1257,2026-05-11 16:09:42.297926,0.8202307,-0.023537958,0.15415533,2.3330472,0.19990565,-6.338185
1258,2026-05-11 16:09:42.300973,0.8202307,-0.023537958,0.15415533,2.2747095,0.18875736,-6.3186374
1259,2026-05-11 16:09:42.303798,0.8202307,-0.023537958,0.15415533,2.2747095,0.18875736,-6.3186374
1260,2026-05-11 16:09:42.306472,0.8202307,-0.023537958,0.15415533,2.2747095,0.18875736,-6.3186374
1261,2026-05-11 16:09:42.309072,0.8202307,-0.023537958,0.15415533,2.2747095,0.18875736,-6.3186374
1262,2026-05-11 16:09:42.311813,0.8202307,-0.023537958,0.15415533,2.2747095,0.18875736,-6.3186374
1263,2026-05-11 16:09:42.314414,0.8202307,-0.023537958,0.15415533,2.2747095,0.18875736,-6.3186374
1264,2026-05-11 16:09:42.317670,0.658697,-0.19836523,0.1817789,2.2747095,0.18875736,-6.3186374
1265,2026-05-11 16:09:42.320420,0.658697,-0.19836523,0.1817789,2.2747095,0.18875736,-6.3186374
1266,2026-05-11 16:09:42.323017,0.658697,-0.19836523,0.1817789,2.2747095,0.18875736,-6.3186374
