id,timestamp,acc_x,acc_y,acc_z,gyro_x,gyro_y,gyro_z
1,2026-05-11 16:15:50.845023,-0.38612008,0.110616215,0.9576168,4.3902884,1.1381947,2.1168008
2,2026-05-11 16:15:50.856075,-0.38612008,0.110616215,0.9576168,4.3902884,1.1381947,2.1168008
3,2026-05-11 16:15:50.859224,-0.20360945,0.1253122,0.8058397,4.3902884,1.1381947,2.1168008
4,2026-05-11 16:15:50.862258,-0.20360945,0.1253122,0.8058397,4.3902884,1.1381947,2.1168008
5,2026-05-11 16:15:50.865240,-0.20360945,0.1253122,0.8058397,4.6329546,0.6742425,1.8955148
6,2026-05-11 16:15:50.868590,-0.20360945,0.1253122,0.8058397,4.6329546,0.6742425,1.8955148
7,2026-05-11 16:15:50.871380,-0.20360945,0.1253122,0.8058397,4.6329546,0.6742425,1.8955148
8,2026-05-11 16:15:50.874092,-0.20360945,0.1253122,0.8058397,4.6329546,0.6742425,1.8955148
9,2026-05-11 16:15:50.876795,-0.20360945,0.1253122,0.8058397,4.6329546,0.6742425,1.8955148
10,2026-05-11 16:15:50.879399,0.10714039,0.18110813,0.6154018,4.6329546,0.6742425,1.8955148
11,2026-05-11 16:15:50.882337,0.10714039,0.18110813,0.6154018,4.6329546,0.6742425,1.8955148
12,2026-05-11 16:15:50.885783,0.10714039,0.18110813,0.6154018,4.6329546,0.6742425,1.8955148
13,2026-05-11 16:15:50.888617,0.10714039,0.18110813,0.6154018,4.6329546,0.6742425,1.8955148
14,2026-05-11 16:15:50.891253,0.10714039,0.18110813,0.6154018,4.6329546,0.6742425,1.8955148
15,2026-05-11 16:15:50.894040,0.10714039,0.18110813,0.6154018,4.6329546,0.6742425,1.8955148
16,2026-05-11 16:15:50.896767,0.10714039,0.18110813,0.6154018,4.6329546,0.6742425,1.8955148
17,2026-05-11 16:15:50.899435,0.10714039,0.18110813,0.6154018,4.6329546,0.6742425,1.8955148
18,2026-05-11 16:15:50.902700,0.10714039,0.18110813,0.6154018,4.6329546,0.6742425,1.8955148
19,2026-05-11 16:15:50.905527,0.10714039,0.18110813,0.6154018,4.6329546,0.6742425,1.8955148
20,2026-05-11 16:15:50.908119,0.10714039,0.18110813,0.6154018,4.6329546,0.6742425,1.8955148
21,2026-05-11 16:15:50.910744,0.10714039,0.18110813,0.6154018,4.6329546,0.6742425,1.8955148
22,2026-05-11 16:15:50.913335,0.10714039,0.18110813,0.6154018,4.6329546,0.6742425,1.8955148
23,2026-05-11 16:15:50.916568,0.10714039,0.18110813,0.6154018,4.6329546,0.6742425,1.8955148
24,2026-05-11 16:15:50.919385,0.10714039,0.18110813,0.6154018,4.6329546,0.6742425,1.8955148
25,2026-05-11 16:15:50.922126,0.10714039,0.18110813,0.6154018,4.6329546,0.6742425,1.8955148
26,2026-05-11 16:15:50.924781,0.10714039,0.18110813,0.6154018,4.6329546,0.6742425,1.8955148
27,2026-05-11 16:15:50.927581,0.10714039,0.18110813,0.6154018,4.6329546,0.6742425,1.8955148
28,2026-05-11 16:15:50.930208,0.10714039,0.18110813,0.6154018,4.6329546,0.6742425,1.8955148
29,2026-05-11 16:15:50.933435,0.10714039,0.18110813,0.6154018,4.6329546,0.6742425,1.8955148
30,2026-05-11 16:15:50.936173,0.10714039,0.18110813,0.6154018,4.6329546,0.6742425,1.8955148
31,2026-05-11 16:15:50.938910,0.10714039,0.18110813,0.6154018,4.6329546,0.6742425,1.8955148
32,2026-05-11 16:15:50.941532,0.10714039,0.18110813,0.6154018,4.6329546,0.6742425,1.8955148
33,2026-05-11 16:15:50.944122,0.10714039,0.18110813,0.6154018,4.6329546,0.6742425,1.8955148
34,2026-05-11 16:15:50.946842,0.10714039,0.18110813,0.6154018,4.6329546,0.6742425,1.8955148
35,2026-05-11 16:15:50.949775,0.10714039,0.18110813,0.6154018,4.6329546,0.6742425,1.8955148
36,2026-05-11 16:15:50.952645,0.36191136,0.21671996,0.37941238,4.4926085,0.9436341,1.5357152
37,2026-05-11 16:15:50.955398,0.36191136,0.21671996,0.37941238,4.4926085,0.9436341,1.5357152
38,2026-05-11 16:15:50.958066,0.36191136,0.21671996,0.37941238,4.4926085,0.9436341,1.5357152
39,2026-05-11 16:15:50.960772,0.36191136,0.21671996,0.37941238,4.4926085,0.9436341,1.5357152
40,2026-05-11 16:15:50.963604,0.36191136,0.21671996,0.37941238,4.4926085,0.9436341,1.5357152
41,2026-05-11 16:15:50.966699,0.36191136,0.21671996,0.37941238,4.4926085,0.9436341,1.5357152
42,2026-05-11 16:15:50.969585,0.36191136,0.21671996,0.37941238,4.4926085,0.9436341,1.5357152
43,2026-05-11 16:15:50.972248,0.36191136,0.21671996,0.37941238,4.4926085,0.9436341,1.5357152
44,2026-05-11 16:15:50.974852,0.36191136,0.21671996,0.37941238,4.4926085,0.9436341,1.5357152
45,2026-05-11 16:15:50.977534,0.36191136,0.21671996,0.37941238,4.4926085,0.9436341,1.5357152
46,2026-05-11 16:15:50.980100,0.36191136,0.21671996,0.37941238,4.4926085,0.9436341,1.5357152
47,2026-05-11 16:15:50.983171,0.36191136,0.21671996,0.37941238,4.4926085,0.9436341,1.5357152
48,2026-05-11 16:15:50.985884,0.36191136,0.21671996,0.37941238,4.4926085,0.9436341,1.5357152
49,2026-05-11 16:15:50.988464,0.36191136,0.21671996,0.37941238,4.4926085,0.9436341,1.5357152
50,2026-05-11 16:15:50.991044,0.36191136,0.21671996,0.37941238,4.4926085,0.9436341,1.5357152
51,2026-05-11 16:15:50.993601,0.36191136,0.21671996,0.37941238,4.4926085,0.9436341,1.5357152
52,2026-05-11 16:15:50.996413,0.36191136,0.21671996,0.37941238,4.4926085,0.9436341,1.5357152
53,2026-05-11 16:15:50.999440,0.36191136,0.21671996,0.37941238,4.4926085,0.9436341,1.5357152
54,2026-05-11 16:15:51.002425,0.36191136,0.21671996,0.37941238,4.4926085,0.9436341,1.5357152
55,2026-05-11 16:15:51.005137,0.36191136,0.21671996,0.37941238,4.4926085,0.9436341,1.5357152
56,2026-05-11 16:15:51.007841,0.36191136,0.21671996,0.37941238,4.4926085,0.9436341,1.5357152
57,2026-05-11 16:15:51.010480,0.36191136,0.21671996,0.37941238,4.4926085,0.9436341,1.5357152
58,2026-05-11 16:15:51.013056,0.36191136,0.21671996,0.37941238,4.4926085,0.9436341,1.5357152
59,2026-05-11 16:15:51.016051,0.36191136,0.21671996,0.37941238,4.4926085,0.9436341,1.5357152
60,2026-05-11 16:15:51.018824,0.36191136,0.21671996,0.37941238,4.4926085,0.9436341,1.5357152
61,2026-05-11 16:15:51.021417,0.36191136,0.21671996,0.37941238,4.4926085,0.9436341,1.5357152
62,2026-05-11 16:15:51.024026,0.36191136,0.21671996,0.37941238,4.4926085,0.9436341,1.5357152
63,2026-05-11 16:15:51.026610,0.36191136,0.21671996,0.37941238,4.4926085,0.9436341,1.5357152
64,2026-05-11 16:15:51.029496,0.36191136,0.21671996,0.37941238,4.4926085,0.9436341,1.5357152
65,2026-05-11 16:15:51.032751,0.36191136,0.21671996,0.37941238,4.4926085,0.9436341,1.5357152
66,2026-05-11 16:15:51.035668,0.36191136,0.21671996,0.37941238,4.4926085,0.9436341,1.5357152
67,2026-05-11 16:15:51.038294,0.36191136,0.21671996,0.37941238,4.4926085,0.9436341,1.5357152
68,2026-05-11 16:15:51.040900,0.36191136,0.21671996,0.37941238,4.4926085,0.9436341,1.5357152
69,2026-05-11 16:15:51.043527,0.39362052,0.21300024,0.15116736,3.3852625,2.0864103,0.6834055
70,2026-05-11 16:15:51.046218,0.39362052,0.21300024,0.15116736,3.3852625,2.0864103,0.6834055
71,2026-05-11 16:15:51.049363,0.39362052,0.21300024,0.15116736,3.3852625,2.0864103,0.6834055
72,2026-05-11 16:15:51.052137,0.39362052,0.21300024,0.15116736,3.3852625,2.0864103,0.6834055
73,2026-05-11 16:15:51.054684,0.39362052,0.21300024,0.15116736,3.3852625,2.0864103,0.6834055
74,2026-05-11 16:15:51.057442,0.39362052,0.21300024,0.15116736,3.3852625,2.0864103,0.6834055
75,2026-05-11 16:15:51.060025,0.39362052,0.21300024,0.15116736,3.3852625,2.0864103,0.6834055
76,2026-05-11 16:15:51.062557,0.39362052,0.21300024,0.15116736,3.3852625,2.0864103,0.6834055
77,2026-05-11 16:15:51.065331,0.39362052,0.21300024,0.15116736,3.3852625,2.0864103,0.6834055
78,2026-05-11 16:15:51.068215,0.39362052,0.21300024,0.15116736,3.3852625,2.0864103,0.6834055
79,2026-05-11 16:15:51.070891,0.39362052,0.21300024,0.15116736,3.3852625,2.0864103,0.6834055
80,2026-05-11 16:15:51.073658,0.39362052,0.21300024,0.15116736,3.3852625,2.0864103,0.6834055
81,2026-05-11 16:15:51.076267,0.39362052,0.21300024,0.15116736,3.3852625,2.0864103,0.6834055
82,2026-05-11 16:15:51.079069,0.39362052,0.21300024,0.15116736,3.3852625,2.0864103,0.6834055
83,2026-05-11 16:15:51.081735,0.39362052,0.21300024,0.15116736,3.3852625,2.0864103,0.6834055
84,2026-05-11 16:15:51.085062,0.39362052,0.21300024,0.15116736,3.3852625,2.0864103,0.6834055
85,2026-05-11 16:15:51.087751,0.39362052,0.21300024,0.15116736,3.3852625,2.0864103,0.6834055
86,2026-05-11 16:15:51.090521,0.20409729,0.15604569,-0.16427788,3.3852625,2.0864103,0.6834055
87,2026-05-11 16:15:51.093238,0.20409729,0.15604569,-0.16427788,3.3852625,2.0864103,0.6834055
88,2026-05-11 16:15:51.095824,0.20409729,0.15604569,-0.16427788,3.3852625,2.0864103,0.6834055
89,2026-05-11 16:15:51.098958,0.20409729,0.15604569,-0.16427788,3.3852625,2.0864103,0.6834055
90,2026-05-11 16:15:51.101774,0.20409729,0.15604569,-0.16427788,3.3852625,2.0864103,0.6834055
91,2026-05-11 16:15:51.104493,0.20409729,0.15604569,-0.16427788,3.3852625,2.0864103,0.6834055
92,2026-05-11 16:15:51.107080,0.20409729,0.15604569,-0.16427788,3.3852625,2.0864103,0.6834055
93,2026-05-11 16:15:51.109827,0.20409729,0.15604569,-0.16427788,3.3852625,2.0864103,0.6834055
94,2026-05-11 16:15:51.112428,0.20409729,0.15604569,-0.16427788,3.3852625,2.0864103,0.6834055
95,2026-05-11 16:15:51.115125,0.20409729,0.15604569,-0.16427788,3.3852625,2.0864103,0.6834055
96,2026-05-11 16:15:51.118152,0.20409729,0.15604569,-0.16427788,3.3852625,2.0864103,0.6834055
97,2026-05-11 16:15:51.120731,0.20409729,0.15604569,-0.16427788,3.3852625,2.0864103,0.6834055
98,2026-05-11 16:15:51.123467,0.20409729,0.15604569,-0.16427788,3.3852625,2.0864103,0.6834055
99,2026-05-11 16:15:51.126091,0.20409729,0.15604569,-0.16427788,3.3852625,2.0864103,0.6834055
100,2026-05-11 16:15:51.128694,0.20409729,0.15604569,-0.16427788,3.3852625,2.0864103,0.6834055
101,2026-05-11 16:15:51.131259,0.20409729,0.15604569,-0.16427788,3.3852625,2.0864103,0.6834055
102,2026-05-11 16:15:51.134391,0.20409729,0.15604569,-0.16427788,3.3852625,2.0864103,0.6834055
103,2026-05-11 16:15:51.137146,0.20409729,0.15604569,-0.16427788,3.3852625,2.0864103,0.6834055
104,2026-05-11 16:15:51.139762,0.20409729,0.15604569,-0.16427788,3.3852625,2.0864103,0.6834055
105,2026-05-11 16:15:51.142398,0.20409729,0.15604569,-0.16427788,3.3852625,2.0864103,0.6834055
106,2026-05-11 16:15:51.145147,0.20409729,0.15604569,-0.16427788,3.3852625,2.0864103,0.6834055
107,2026-05-11 16:15:51.147818,0.20409729,0.15604569,-0.16427788,3.3852625,2.0864103,0.6834055
108,2026-05-11 16:15:51.151716,0.20409729,0.15604569,-0.16427788,3.3852625,2.0864103,0.6834055
109,2026-05-11 16:15:51.154637,0.20409729,0.15604569,-0.16427788,3.3852625,2.0864103,0.6834055
110,2026-05-11 16:15:51.157300,0.20409729,0.15604569,-0.16427788,3.3852625,2.0864103,0.6834055
111,2026-05-11 16:15:51.159888,0.20409729,0.15604569,-0.16427788,3.3852625,2.0864103,0.6834055
112,2026-05-11 16:15:51.162667,0.20409729,0.15604569,-0.16427788,3.3852625,2.0864103,0.6834055
113,2026-05-11 16:15:51.165377,0.20409729,0.15604569,-0.16427788,3.3852625,2.0864103,0.6834055
114,2026-05-11 16:15:51.168702,0.20409729,0.15604569,-0.16427788,3.3852625,2.0864103,0.6834055
115,2026-05-11 16:15:51.171412,0.20409729,0.15604569,-0.16427788,3.3852625,2.0864103,0.6834055
116,2026-05-11 16:15:51.174135,0.20409729,0.15604569,-0.16427788,3.3852625,2.0864103,0.6834055
117,2026-05-11 16:15:51.176834,0.20409729,0.15604569,-0.16427788,3.3852625,2.0864103,0.6834055
118,2026-05-11 16:15:51.179407,0.20409729,0.15604569,-0.16427788,3.3852625,2.0864103,0.6834055
119,2026-05-11 16:15:51.182142,0.20409729,0.15604569,-0.16427788,3.3852625,2.0864103,0.6834055
120,2026-05-11 16:15:51.185296,0.20409729,0.15604569,-0.16427788,3.3852625,2.0864103,0.6834055
121,2026-05-11 16:15:51.187927,-0.03420931,0.09402988,-0.30361527,3.3852625,2.0864103,0.6834055
122,2026-05-11 16:15:51.190667,-0.03420931,0.09402988,-0.30361527,3.3852625,2.0864103,0.6834055
123,2026-05-11 16:15:51.193278,-0.03420931,0.09402988,-0.30361527,3.3852625,2.0864103,0.6834055
124,2026-05-11 16:15:51.196083,-0.03420931,0.09402988,-0.30361527,3.3852625,2.0864103,0.6834055
125,2026-05-11 16:15:51.199442,-0.03420931,0.09402988,-0.30361527,3.3852625,2.0864103,0.6834055
126,2026-05-11 16:15:51.202262,-0.03420931,0.09402988,-0.30361527,3.3852625,2.0864103,0.6834055
127,2026-05-11 16:15:51.204960,-0.03420931,0.09402988,-0.30361527,3.3852625,2.0864103,0.6834055
128,2026-05-11 16:15:51.207619,-0.03420931,0.09402988,-0.30361527,3.3852625,2.0864103,0.6834055
129,2026-05-11 16:15:51.210218,-0.03420931,0.09402988,-0.30361527,3.3852625,2.0864103,0.6834055
130,2026-05-11 16:15:51.212982,-0.03420931,0.09402988,-0.30361527,3.3852625,2.0864103,0.6834055
131,2026-05-11 16:15:51.215915,-0.03420931,0.09402988,-0.30361527,3.3852625,2.0864103,0.6834055
132,2026-05-11 16:15:51.218628,-0.03420931,0.09402988,-0.30361527,3.3852625,2.0864103,0.6834055
133,2026-05-11 16:15:51.221329,-0.03420931,0.09402988,-0.30361527,3.3852625,2.0864103,0.6834055
134,2026-05-11 16:15:51.224023,-0.03420931,0.09402988,-0.30361527,3.3852625,2.0864103,0.6834055
135,2026-05-11 16:15:51.226827,-0.03420931,0.09402988,-0.30361527,3.3852625,2.0864103,0.6834055
136,2026-05-11 16:15:51.229407,-0.03420931,0.09402988,-0.30361527,3.3852625,2.0864103,0.6834055
137,2026-05-11 16:15:51.232276,-0.03420931,0.09402988,-0.30361527,2.8510609,2.212554,0.5991061
138,2026-05-11 16:15:51.235214,-0.03420931,0.09402988,-0.30361527,2.8510609,2.212554,0.5991061
139,2026-05-11 16:15:51.237838,-0.03420931,0.09402988,-0.30361527,2.8510609,2.212554,0.5991061
140,2026-05-11 16:15:51.240399,-0.03420931,0.09402988,-0.30361527,2.8510609,2.212554,0.5991061
141,2026-05-11 16:15:51.243275,-0.03420931,0.09402988,-0.30361527,2.8510609,2.212554,0.5991061
142,2026-05-11 16:15:51.245885,-0.03420931,0.09402988,-0.30361527,2.8510609,2.212554,0.5991061
143,2026-05-11 16:15:51.249066,-0.03420931,0.09402988,-0.30361527,2.8510609,2.212554,0.5991061
144,2026-05-11 16:15:51.252000,-0.03420931,0.09402988,-0.30361527,2.8510609,2.212554,0.5991061
145,2026-05-11 16:15:51.254661,-0.03420931,0.09402988,-0.30361527,2.8510609,2.212554,0.5991061
146,2026-05-11 16:15:51.257232,-0.03420931,0.09402988,-0.30361527,2.8510609,2.212554,0.5991061
147,2026-05-11 16:15:51.260066,-0.03420931,0.09402988,-0.30361527,2.8510609,2.212554,0.5991061
148,2026-05-11 16:15:51.262677,-0.03420931,0.09402988,-0.30361527,2.8510609,2.212554,0.5991061
149,2026-05-11 16:15:51.265666,-0.03420931,0.09402988,-0.30361527,2.8510609,2.212554,0.5991061
150,2026-05-11 16:15:51.268591,-0.03420931,0.09402988,-0.30361527,2.3823745,2.100002,0.9763154
151,2026-05-11 16:15:51.271178,-0.03420931,0.09402988,-0.30361527,2.3823745,2.100002,0.9763154
152,2026-05-11 16:15:51.273896,-0.03420931,0.09402988,-0.30361527,2.3823745,2.100002,0.9763154
153,2026-05-11 16:15:51.276487,-0.03420931,0.09402988,-0.30361527,2.3823745,2.100002,0.9763154
154,2026-05-11 16:15:51.279321,-0.03420931,0.09402988,-0.30361527,2.3823745,2.100002,0.9763154
155,2026-05-11 16:15:51.282571,-0.03420931,0.09402988,-0.30361527,2.3823745,2.100002,0.9763154
156,2026-05-11 16:15:51.285433,-0.03420931,0.09402988,-0.30361527,2.3823745,2.100002,0.9763154
157,2026-05-11 16:15:51.288012,-0.03420931,0.09402988,-0.30361527,2.3823745,2.100002,0.9763154
158,2026-05-11 16:15:51.290616,-0.03420931,0.09402988,-0.30361527,2.3823745,2.100002,0.9763154
159,2026-05-11 16:15:51.293234,-0.03420931,0.09402988,-0.30361527,2.3823745,2.100002,0.9763154
160,2026-05-11 16:15:51.295807,-0.03420931,0.09402988,-0.30361527,2.3823745,2.100002,0.9763154
161,2026-05-11 16:15:51.298451,-0.03420931,0.09402988,-0.30361527,2.3823745,2.100002,0.9763154
162,2026-05-11 16:15:51.301761,-0.03420931,0.09402988,-0.30361527,2.3823745,2.100002,0.9763154
163,2026-05-11 16:15:51.304562,-0.03420931,0.09402988,-0.30361527,2.3823745,2.100002,0.9763154
164,2026-05-11 16:15:51.307165,-0.03420931,0.09402988,-0.30361527,2.3823745,2.100002,0.9763154
165,2026-05-11 16:15:51.309779,-0.03420931,0.09402988,-0.30361527,2.3823745,2.100002,0.9763154
166,2026-05-11 16:15:51.312575,-0.03420931,0.09402988,-0.30361527,2.3823745,2.100002,0.9763154
167,2026-05-11 16:15:51.315266,-0.03420931,0.09402988,-0.30361527,2.3823745,2.100002,0.9763154
168,2026-05-11 16:15:51.318524,-0.03420931,0.09402988,-0.30361527,2.3823745,2.100002,0.9763154
169,2026-05-11 16:15:51.321109,-0.03420931,0.09402988,-0.30361527,2.3823745,2.100002,0.9763154
170,2026-05-11 16:15:51.324014,-0.03420931,0.09402988,-0.30361527,2.3823745,2.100002,0.9763154
171,2026-05-11 16:15:51.326982,-0.03420931,0.09402988,-0.30361527,2.3823745,2.100002,0.9763154
172,2026-05-11 16:15:51.330021,-0.03420931,0.09402988,-0.30361527,2.3823745,2.100002,0.9763154
173,2026-05-11 16:15:51.333458,-0.03420931,0.09402988,-0.30361527,2.3823745,2.100002,0.9763154
174,2026-05-11 16:15:51.336594,-0.03420931,0.09402988,-0.30361527,2.3823745,2.100002,0.9763154
175,2026-05-11 16:15:51.339484,-0.03420931,0.09402988,-0.30361527,2.3823745,2.100002,0.9763154
176,2026-05-11 16:15:51.342199,-0.35233763,0.044331856,-0.30648127,2.3823745,2.100002,0.9763154
177,2026-05-11 16:15:51.344937,-0.35233763,0.044331856,-0.30648127,2.3823745,2.100002,0.9763154
178,2026-05-11 16:15:51.347549,-0.35233763,0.044331856,-0.30648127,2.3823745,2.100002,0.9763154
179,2026-05-11 16:15:51.350806,-0.35233763,0.044331856,-0.30648127,2.3823745,2.100002,0.9763154
180,2026-05-11 16:15:51.353688,-0.35233763,0.044331856,-0.30648127,2.3823745,2.100002,0.9763154
181,2026-05-11 16:15:51.356350,-0.35233763,0.044331856,-0.30648127,2.3823745,2.100002,0.9763154
182,2026-05-11 16:15:51.358914,-0.35233763,0.044331856,-0.30648127,2.3823745,2.100002,0.9763154
183,2026-05-11 16:15:51.361494,-0.35233763,0.044331856,-0.30648127,2.3823745,2.100002,0.9763154
184,2026-05-11 16:15:51.364029,-0.35233763,0.044331856,-0.30648127,2.3823745,2.100002,0.9763154
185,2026-05-11 16:15:51.366948,-0.35233763,0.044331856,-0.30648127,2.3823745,2.100002,0.9763154
186,2026-05-11 16:15:51.369560,-0.35233763,0.044331856,-0.30648127,2.3823745,2.100002,0.9763154
187,2026-05-11 16:15:51.372107,-0.35233763,0.044331856,-0.30648127,2.3823745,2.100002,0.9763154
188,2026-05-11 16:15:51.374948,-0.35233763,0.044331856,-0.30648127,2.3823745,2.100002,0.9763154
189,2026-05-11 16:15:51.377576,-0.35233763,0.044331856,-0.30648127,2.3823745,2.100002,0.9763154
190,2026-05-11 16:15:51.380257,-0.35233763,0.044331856,-0.30648127,2.3823745,2.100002,0.9763154
191,2026-05-11 16:15:51.383368,-0.35233763,0.044331856,-0.30648127,2.3823745,2.100002,0.9763154
192,2026-05-11 16:15:51.386044,-0.35233763,0.044331856,-0.30648127,2.3823745,2.100002,0.9763154
193,2026-05-11 16:15:51.388708,-0.35233763,0.044331856,-0.30648127,2.3823745,2.100002,0.9763154
194,2026-05-11 16:15:51.391346,-0.35233763,0.044331856,-0.30648127,2.3823745,2.100002,0.9763154
195,2026-05-11 16:15:51.393914,-0.35233763,0.044331856,-0.30648127,2.3823745,2.100002,0.9763154
196,2026-05-11 16:15:51.396572,-0.35233763,0.044331856,-0.30648127,2.3823745,2.100002,0.9763154
197,2026-05-11 16:15:51.399460,-0.35233763,0.044331856,-0.30648127,2.3823745,2.100002,0.9763154
198,2026-05-11 16:15:51.402268,-0.35233763,0.044331856,-0.30648127,2.3823745,2.100002,0.9763154
199,2026-05-11 16:15:51.404894,-0.35233763,0.044331856,-0.30648127,2.3823745,2.100002,0.9763154
200,2026-05-11 16:15:51.407442,-0.35233763,0.044331856,-0.30648127,2.3823745,2.100002,0.9763154
201,2026-05-11 16:15:51.410200,-0.35233763,0.044331856,-0.30648127,2.3823745,2.100002,0.9763154
202,2026-05-11 16:15:51.412881,-0.2128173,-0.06744295,-0.46252698,2.3823745,2.100002,0.9763154
203,2026-05-11 16:15:51.415735,-0.2128173,-0.06744295,-0.46252698,2.1546745,1.7101172,1.2454015
204,2026-05-11 16:15:51.418692,-0.2128173,-0.06744295,-0.46252698,2.1546745,1.7101172,1.2454015
205,2026-05-11 16:15:51.421328,-0.2128173,-0.06744295,-0.46252698,2.1546745,1.7101172,1.2454015
206,2026-05-11 16:15:51.423894,-0.2128173,-0.06744295,-0.46252698,2.1546745,1.7101172,1.2454015
207,2026-05-11 16:15:51.426493,-0.2128173,-0.06744295,-0.46252698,2.1546745,1.7101172,1.2454015
208,2026-05-11 16:15:51.429022,-0.2128173,-0.06744295,-0.46252698,2.1546745,1.7101172,1.2454015
209,2026-05-11 16:15:51.432131,-0.2128173,-0.06744295,-0.46252698,2.1546745,1.7101172,1.2454015
210,2026-05-11 16:15:51.434970,-0.2128173,-0.06744295,-0.46252698,2.1546745,1.7101172,1.2454015
211,2026-05-11 16:15:51.437547,-0.2128173,-0.06744295,-0.46252698,2.1546745,1.7101172,1.2454015
212,2026-05-11 16:15:51.440228,-0.2128173,-0.06744295,-0.46252698,2.1546745,1.7101172,1.2454015
213,2026-05-11 16:15:51.442788,-0.2128173,-0.06744295,-0.46252698,2.1546745,1.7101172,1.2454015
214,2026-05-11 16:15:51.445678,-0.2128173,-0.06744295,-0.46252698,2.1546745,1.7101172,1.2454015
215,2026-05-11 16:15:51.448776,-0.2128173,-0.06744295,-0.46252698,2.1546745,1.7101172,1.2454015
216,2026-05-11 16:15:51.451811,-0.2128173,-0.06744295,-0.46252698,2.1546745,1.7101172,1.2454015
217,2026-05-11 16:15:51.454462,-0.2128173,-0.06744295,-0.46252698,2.1546745,1.7101172,1.2454015
218,2026-05-11 16:15:51.457065,-0.2128173,-0.06744295,-0.46252698,2.1546745,1.7101172,1.2454015
219,2026-05-11 16:15:51.459770,-0.2128173,-0.06744295,-0.46252698,2.1546745,1.7101172,1.2454015
220,2026-05-11 16:15:51.462359,-0.2128173,-0.06744295,-0.46252698,2.1546745,1.7101172,1.2454015
221,2026-05-11 16:15:51.464943,-0.2128173,-0.06744295,-0.46252698,2.1546745,1.7101172,1.2454015
222,2026-05-11 16:15:51.468100,-0.2128173,-0.06744295,-0.46252698,2.1546745,1.7101172,1.2454015
223,2026-05-11 16:15:51.470761,-0.2128173,-0.06744295,-0.46252698,2.1546745,1.7101172,1.2454015
224,2026-05-11 16:15:51.473433,-0.2128173,-0.06744295,-0.46252698,2.1546745,1.7101172,1.2454015
225,2026-05-11 16:15:51.476023,-0.2128173,-0.06744295,-0.46252698,2.1546745,1.7101172,1.2454015
226,2026-05-11 16:15:51.478735,-0.2128173,-0.06744295,-0.46252698,2.1546745,1.7101172,1.2454015
227,2026-05-11 16:15:51.481321,-0.2128173,-0.06744295,-0.46252698,2.1546745,1.7101172,1.2454015
228,2026-05-11 16:15:51.484457,-0.2128173,-0.06744295,-0.46252698,2.1546745,1.7101172,1.2454015
229,2026-05-11 16:15:51.487213,-0.2128173,-0.06744295,-0.46252698,2.1546745,1.7101172,1.2454015
230,2026-05-11 16:15:51.489767,-0.2128173,-0.06744295,-0.46252698,2.1546745,1.7101172,1.2454015
231,2026-05-11 16:15:51.492302,-0.2128173,-0.06744295,-0.46252698,2.1546745,1.7101172,1.2454015
232,2026-05-11 16:15:51.495014,-0.2128173,-0.06744295,-0.46252698,2.1546745,1.7101172,1.2454015
233,2026-05-11 16:15:51.497582,-0.2128173,-0.06744295,-0.46252698,2.1546745,1.7101172,1.2454015
234,2026-05-11 16:15:51.500917,-0.2128173,-0.06744295,-0.46252698,2.1546745,1.7101172,1.2454015
235,2026-05-11 16:15:51.503668,-0.2128173,-0.06744295,-0.46252698,2.1546745,1.7101172,1.2454015
236,2026-05-11 16:15:51.506254,-0.2128173,-0.06744295,-0.46252698,2.1546745,1.7101172,1.2454015
237,2026-05-11 16:15:51.508830,-0.2128173,-0.06744295,-0.46252698,2.1546745,1.7101172,1.2454015
238,2026-05-11 16:15:51.511591,-0.2128173,-0.06744295,-0.46252698,2.1546745,1.7101172,1.2454015
239,2026-05-11 16:15:51.514182,-0.2128173,-0.06744295,-0.46252698,2.1546745,1.7101172,1.2454015
240,2026-05-11 16:15:51.517180,-0.2128173,-0.06744295,-0.46252698,2.1546745,1.7101172,1.2454015
241,2026-05-11 16:15:51.519825,-0.2128173,-0.06744295,-0.46252698,2.1546745,1.7101172,1.2454015
242,2026-05-11 16:15:51.522409,-0.2128173,-0.06744295,-0.46252698,2.1546745,1.7101172,1.2454015
243,2026-05-11 16:15:51.525194,-0.2128173,-0.06744295,-0.46252698,2.1546745,1.7101172,1.2454015
244,2026-05-11 16:15:51.527864,-0.2128173,-0.06744295,-0.46252698,2.1546745,1.7101172,1.2454015
245,2026-05-11 16:15:51.530489,-0.2128173,-0.06744295,-0.46252698,2.1546745,1.7101172,1.2454015
246,2026-05-11 16:15:51.533887,-0.27001578,-0.07658983,-0.42868355,2.1546745,1.7101172,1.2454015
247,2026-05-11 16:15:51.536881,-0.27001578,-0.07658983,-0.42868355,2.1546745,1.7101172,1.2454015
248,2026-05-11 16:15:51.539518,-0.27001578,-0.07658983,-0.42868355,2.1546745,1.7101172,1.2454015
249,2026-05-11 16:15:51.542259,-0.27001578,-0.07658983,-0.42868355,2.1546745,1.7101172,1.2454015
250,2026-05-11 16:15:51.544839,-0.27001578,-0.07658983,-0.42868355,2.1546745,1.7101172,1.2454015
251,2026-05-11 16:15:51.547427,-0.27001578,-0.07658983,-0.42868355,2.1546745,1.7101172,1.2454015
252,2026-05-11 16:15:51.550727,-0.27001578,-0.07658983,-0.42868355,1.8490891,0.46502116,1.6513215
253,2026-05-11 16:15:51.553531,-0.27001578,-0.07658983,-0.42868355,1.8490891,0.46502116,1.6513215
254,2026-05-11 16:15:51.556224,-0.27001578,-0.07658983,-0.42868355,1.8490891,0.46502116,1.6513215
255,2026-05-11 16:15:51.558912,-0.27001578,-0.07658983,-0.42868355,1.8490891,0.46502116,1.6513215
256,2026-05-11 16:15:51.561473,-0.27001578,-0.07658983,-0.42868355,1.8490891,0.46502116,1.6513215
257,2026-05-11 16:15:51.564443,-0.27001578,-0.07658983,-0.42868355,1.8490891,0.46502116,1.6513215
258,2026-05-11 16:15:51.567693,-0.27001578,-0.07658983,-0.42868355,1.8490891,0.46502116,1.6513215
259,2026-05-11 16:15:51.570462,-0.27001578,-0.07658983,-0.42868355,1.8490891,0.46502116,1.6513215
260,2026-05-11 16:15:51.573026,-0.27001578,-0.07658983,-0.42868355,1.8490891,0.46502116,1.6513215
261,2026-05-11 16:15:51.575781,-0.27001578,-0.07658983,-0.42868355,1.8490891,0.46502116,1.6513215
262,2026-05-11 16:15:51.578316,-0.27001578,-0.07658983,-0.42868355,1.8490891,0.46502116,1.6513215
263,2026-05-11 16:15:51.580834,-0.27001578,-0.07658983,-0.42868355,1.8490891,0.46502116,1.6513215
264,2026-05-11 16:15:51.583964,-0.27001578,-0.07658983,-0.42868355,1.8490891,0.46502116,1.6513215
265,2026-05-11 16:15:51.586616,-0.27001578,-0.07658983,-0.42868355,1.8490891,0.46502116,1.6513215
266,2026-05-11 16:15:51.589199,-0.27001578,-0.07658983,-0.42868355,1.8490891,0.46502116,1.6513215
267,2026-05-11 16:15:51.591945,-0.27001578,-0.07658983,-0.42868355,1.8490891,0.46502116,1.6513215
268,2026-05-11 16:15:51.594509,-0.27001578,-0.07658983,-0.42868355,1.8490891,0.46502116,1.6513215
269,2026-05-11 16:15:51.597048,-0.27001578,-0.07658983,-0.42868355,1.8490891,0.46502116,1.6513215
270,2026-05-11 16:15:51.600069,-0.27001578,-0.07658983,-0.42868355,1.8490891,0.46502116,1.6513215
271,2026-05-11 16:15:51.602699,-0.27001578,-0.07658983,-0.42868355,1.8490891,0.46502116,1.6513215
272,2026-05-11 16:15:51.605262,-0.27001578,-0.07658983,-0.42868355,1.8490891,0.46502116,1.6513215
273,2026-05-11 16:15:51.607824,-0.27001578,-0.07658983,-0.42868355,1.8490891,0.46502116,1.6513215
274,2026-05-11 16:15:51.610343,-0.27001578,-0.07658983,-0.42868355,1.8490891,0.46502116,1.6513215
275,2026-05-11 16:15:51.612934,-0.27001578,-0.07658983,-0.42868355,1.8490891,0.46502116,1.6513215
276,2026-05-11 16:15:51.616192,-0.27001578,-0.07658983,-0.42868355,1.8490891,0.46502116,1.6513215
277,2026-05-11 16:15:51.619060,-0.27001578,-0.07658983,-0.42868355,1.8490891,0.46502116,1.6513215
278,2026-05-11 16:15:51.621646,-0.27001578,-0.07658983,-0.42868355,1.8490891,0.46502116,1.6513215
279,2026-05-11 16:15:51.624565,-0.27001578,-0.07658983,-0.42868355,1.8490891,0.46502116,1.6513215
280,2026-05-11 16:15:51.627180,-0.27001578,-0.07658983,-0.42868355,1.8490891,0.46502116,1.6513215
281,2026-05-11 16:15:51.629889,-0.27001578,-0.07658983,-0.42868355,1.8490891,0.46502116,1.6513215
282,2026-05-11 16:15:51.633025,-0.19281614,-0.13195892,-0.45240447,1.806634,-0.2790127,2.0715969
283,2026-05-11 16:15:51.635912,-0.19281614,-0.13195892,-0.45240447,1.806634,-0.2790127,2.0715969
284,2026-05-11 16:15:51.638532,-0.19281614,-0.13195892,-0.45240447,1.806634,-0.2790127,2.0715969
285,2026-05-11 16:15:51.641107,-0.19281614,-0.13195892,-0.45240447,1.806634,-0.2790127,2.0715969
286,2026-05-11 16:15:51.643966,-0.19281614,-0.13195892,-0.45240447,1.806634,-0.2790127,2.0715969
287,2026-05-11 16:15:51.646587,-0.19281614,-0.13195892,-0.45240447,1.806634,-0.2790127,2.0715969
288,2026-05-11 16:15:51.649646,-0.19281614,-0.13195892,-0.45240447,1.806634,-0.2790127,2.0715969
289,2026-05-11 16:15:51.652362,-0.19281614,-0.13195892,-0.45240447,1.806634,-0.2790127,2.0715969
290,2026-05-11 16:15:51.654998,-0.19281614,-0.13195892,-0.45240447,1.806634,-0.2790127,2.0715969
291,2026-05-11 16:15:51.657659,-0.19281614,-0.13195892,-0.45240447,1.806634,-0.2790127,2.0715969
292,2026-05-11 16:15:51.660226,-0.19281614,-0.13195892,-0.45240447,1.806634,-0.2790127,2.0715969
293,2026-05-11 16:15:51.662997,-0.19281614,-0.13195892,-0.45240447,1.806634,-0.2790127,2.0715969
294,2026-05-11 16:15:51.665940,-0.19281614,-0.13195892,-0.45240447,1.806634,-0.2790127,2.0715969
295,2026-05-11 16:15:51.668646,-0.19281614,-0.13195892,-0.45240447,1.806634,-0.2790127,2.0715969
296,2026-05-11 16:15:51.671208,-0.19281614,-0.13195892,-0.45240447,1.806634,-0.2790127,2.0715969
297,2026-05-11 16:15:51.673725,-0.19281614,-0.13195892,-0.45240447,1.806634,-0.2790127,2.0715969
298,2026-05-11 16:15:51.676414,-0.19281614,-0.13195892,-0.45240447,1.806634,-0.2790127,2.0715969
299,2026-05-11 16:15:51.678967,-0.19281614,-0.13195892,-0.45240447,1.806634,-0.2790127,2.0715969
300,2026-05-11 16:15:51.681636,-0.19281614,-0.13195892,-0.45240447,1.806634,-0.2790127,2.0715969
301,2026-05-11 16:15:51.684815,-0.19281614,-0.13195892,-0.45240447,1.806634,-0.2790127,2.0715969
302,2026-05-11 16:15:51.687617,-0.19281614,-0.13195892,-0.45240447,1.806634,-0.2790127,2.0715969
303,2026-05-11 16:15:51.690243,-0.19281614,-0.13195892,-0.45240447,1.806634,-0.2790127,2.0715969
304,2026-05-11 16:15:51.692784,-0.19281614,-0.13195892,-0.45240447,1.806634,-0.2790127,2.0715969
305,2026-05-11 16:15:51.695443,-0.19281614,-0.13195892,-0.45240447,1.806634,-0.2790127,2.0715969
306,2026-05-11 16:15:51.698017,-0.19281614,-0.13195892,-0.45240447,1.806634,-0.2790127,2.0715969
307,2026-05-11 16:15:51.701215,-0.19281614,-0.13195892,-0.45240447,1.806634,-0.2790127,2.0715969
308,2026-05-11 16:15:51.703988,-0.19281614,-0.13195892,-0.45240447,1.806634,-0.2790127,2.0715969
309,2026-05-11 16:15:51.706706,-0.112201676,-0.16580236,-0.48478436,1.7828102,-0.7286095,2.3455698
310,2026-05-11 16:15:51.709345,-0.112201676,-0.16580236,-0.48478436,1.7828102,-0.7286095,2.3455698
311,2026-05-11 16:15:51.711965,-0.112201676,-0.16580236,-0.48478436,1.7828102,-0.7286095,2.3455698
312,2026-05-11 16:15:51.714701,-0.112201676,-0.16580236,-0.48478436,1.7828102,-0.7286095,2.3455698
313,2026-05-11 16:15:51.717804,-0.112201676,-0.16580236,-0.48478436,1.7828102,-0.7286095,2.3455698
314,2026-05-11 16:15:51.720586,-0.112201676,-0.16580236,-0.48478436,1.7828102,-0.7286095,2.3455698
315,2026-05-11 16:15:51.723176,-0.112201676,-0.16580236,-0.48478436,1.7828102,-0.7286095,2.3455698
316,2026-05-11 16:15:51.725957,-0.112201676,-0.16580236,-0.48478436,1.7828102,-0.7286095,2.3455698
317,2026-05-11 16:15:51.728540,-0.112201676,-0.16580236,-0.48478436,1.7828102,-0.7286095,2.3455698
318,2026-05-11 16:15:51.731111,-0.112201676,-0.16580236,-0.48478436,1.7828102,-0.7286095,2.3455698
319,2026-05-11 16:15:51.734097,-0.112201676,-0.16580236,-0.48478436,1.7828102,-0.7286095,2.3455698
320,2026-05-11 16:15:51.736720,-0.112201676,-0.16580236,-0.48478436,1.7828102,-0.7286095,2.3455698
321,2026-05-11 16:15:51.739279,-0.112201676,-0.16580236,-0.48478436,1.7828102,-0.7286095,2.3455698
322,2026-05-11 16:15:51.741999,-0.112201676,-0.16580236,-0.48478436,1.7828102,-0.7286095,2.3455698
323,2026-05-11 16:15:51.744598,-0.112201676,-0.16580236,-0.48478436,1.7828102,-0.7286095,2.3455698
324,2026-05-11 16:15:51.747196,-0.112201676,-0.16580236,-0.48478436,1.7828102,-0.7286095,2.3455698
325,2026-05-11 16:15:51.750357,-0.112201676,-0.16580236,-0.48478436,1.7828102,-0.7286095,2.3455698
326,2026-05-11 16:15:51.753066,-0.112201676,-0.16580236,-0.48478436,1.7828102,-0.7286095,2.3455698
327,2026-05-11 16:15:51.755664,-0.112201676,-0.16580236,-0.48478436,1.7828102,-0.7286095,2.3455698
328,2026-05-11 16:15:51.758406,-0.112201676,-0.16580236,-0.48478436,1.7828102,-0.7286095,2.3455698
329,2026-05-11 16:15:51.760994,-0.112201676,-0.16580236,-0.48478436,1.7828102,-0.7286095,2.3455698
330,2026-05-11 16:15:51.763678,-0.112201676,-0.16580236,-0.48478436,1.7828102,-0.7286095,2.3455698
331,2026-05-11 16:15:51.766590,-0.112201676,-0.16580236,-0.48478436,1.7828102,-0.7286095,2.3455698
332,2026-05-11 16:15:51.769269,-0.112201676,-0.16580236,-0.48478436,1.7828102,-0.7286095,2.3455698
333,2026-05-11 16:15:51.771988,-0.112201676,-0.16580236,-0.48478436,1.7828102,-0.7286095,2.3455698
334,2026-05-11 16:15:51.774565,-0.112201676,-0.16580236,-0.48478436,1.7828102,-0.7286095,2.3455698
335,2026-05-11 16:15:51.777123,-0.112201676,-0.16580236,-0.48478436,1.7828102,-0.7286095,2.3455698
336,2026-05-11 16:15:51.779700,-0.112201676,-0.16580236,-0.48478436,1.7828102,-0.7286095,2.3455698
337,2026-05-11 16:15:51.782781,-0.112201676,-0.16580236,-0.48478436,1.7828102,-0.7286095,2.3455698
338,2026-05-11 16:15:51.785698,-0.112201676,-0.16580236,-0.48478436,1.7828102,-0.7286095,2.3455698
339,2026-05-11 16:15:51.788306,-0.112201676,-0.16580236,-0.48478436,1.7828102,-0.7286095,2.3455698
340,2026-05-11 16:15:51.790908,-0.112201676,-0.16580236,-0.48478436,1.7828102,-0.7286095,2.3455698
341,2026-05-11 16:15:51.814807,0.47203976,-0.56454515,0.40984097,5.979149,1.0538952,-4.3563857
342,2026-05-11 16:15:51.821982,0.47203976,-0.56454515,0.40984097,5.979149,1.0538952,-4.3563857
343,2026-05-11 16:15:51.830948,0.47203976,-0.56454515,0.40984097,5.979149,1.0538952,-4.3563857
344,2026-05-11 16:15:51.834201,0.47203976,-0.56454515,0.40984097,5.979149,1.0538952,-4.3563857
345,2026-05-11 16:15:51.836938,0.47203976,-0.56454515,0.40984097,5.979149,1.0538952,-4.3563857
346,2026-05-11 16:15:51.839718,0.47203976,-0.56454515,0.40984097,5.979149,1.0538952,-4.3563857
347,2026-05-11 16:15:51.842421,0.47203976,-0.56454515,0.40984097,5.979149,1.0538952,-4.3563857
348,2026-05-11 16:15:51.845154,0.47203976,-0.56454515,0.40984097,5.979149,1.0538952,-4.3563857
349,2026-05-11 16:15:51.847787,0.47203976,-0.56454515,0.40984097,5.979149,1.0538952,-4.3563857
350,2026-05-11 16:15:51.851057,0.47203976,-0.56454515,0.40984097,5.979149,1.0538952,-4.3563857
351,2026-05-11 16:15:51.853773,0.47203976,-0.56454515,0.40984097,5.979149,1.0538952,-4.3563857
352,2026-05-11 16:15:51.856582,0.47203976,-0.56454515,0.40984097,5.979149,1.0538952,-4.3563857
353,2026-05-11 16:15:51.859292,0.43654984,-0.6656486,0.13921544,6.1482058,0.2134974,-4.1512876
354,2026-05-11 16:15:51.862130,0.43654984,-0.6656486,0.13921544,6.1482058,0.2134974,-4.1512876
355,2026-05-11 16:15:51.864926,0.43654984,-0.6656486,0.13921544,6.1482058,0.2134974,-4.1512876
356,2026-05-11 16:15:51.867977,0.43654984,-0.6656486,0.13921544,6.1482058,0.2134974,-4.1512876
357,2026-05-11 16:15:51.870739,0.43654984,-0.6656486,0.13921544,6.1482058,0.2134974,-4.1512876
358,2026-05-11 16:15:51.873302,0.43654984,-0.6656486,0.13921544,6.1482058,0.2134974,-4.1512876
359,2026-05-11 16:15:51.876115,0.43654984,-0.6656486,0.13921544,6.1482058,0.2134974,-4.1512876
360,2026-05-11 16:15:51.878918,0.34636167,-0.69882125,-0.09439575,6.023742,-0.49678615,-4.0811906
361,2026-05-11 16:15:51.881660,0.34636167,-0.69882125,-0.09439575,6.023742,-0.49678615,-4.0811906
362,2026-05-11 16:15:51.884722,0.34636167,-0.69882125,-0.09439575,6.023742,-0.49678615,-4.0811906
363,2026-05-11 16:15:51.887528,0.34636167,-0.69882125,-0.09439575,6.023742,-0.49678615,-4.0811906
364,2026-05-11 16:15:51.890136,0.34636167,-0.69882125,-0.09439575,6.023742,-0.49678615,-4.0811906
365,2026-05-11 16:15:51.892721,0.34636167,-0.69882125,-0.09439575,6.023742,-0.49678615,-4.0811906
366,2026-05-11 16:15:51.895495,0.34636167,-0.69882125,-0.09439575,6.023742,-0.49678615,-4.0811906
367,2026-05-11 16:15:51.898105,0.34636167,-0.69882125,-0.09439575,6.023742,-0.49678615,-4.0811906
368,2026-05-11 16:15:51.901287,0.34636167,-0.69882125,-0.09439575,6.023742,-0.49678615,-4.0811906
369,2026-05-11 16:15:51.904030,0.34636167,-0.69882125,-0.09439575,6.023742,-0.49678615,-4.0811906
370,2026-05-11 16:15:51.906847,0.25891754,-0.7027849,-0.26032007,6.023742,-0.49678615,-4.0811906
371,2026-05-11 16:15:51.909542,0.25891754,-0.7027849,-0.26032007,6.023742,-0.49678615,-4.0811906
372,2026-05-11 16:15:51.912267,0.25891754,-0.7027849,-0.26032007,6.023742,-0.49678615,-4.0811906
373,2026-05-11 16:15:51.915022,0.25891754,-0.7027849,-0.26032007,6.023742,-0.49678615,-4.0811906
374,2026-05-11 16:15:51.918180,0.25891754,-0.7027849,-0.26032007,6.023742,-0.49678615,-4.0811906
375,2026-05-11 16:15:51.920820,0.25891754,-0.7027849,-0.26032007,6.023742,-0.49678615,-4.0811906
376,2026-05-11 16:15:51.923583,0.25891754,-0.7027849,-0.26032007,6.023742,-0.49678615,-4.0811906
377,2026-05-11 16:15:51.926180,0.25891754,-0.7027849,-0.26032007,6.023742,-0.49678615,-4.0811906
378,2026-05-11 16:15:51.928955,0.25891754,-0.7027849,-0.26032007,6.023742,-0.49678615,-4.0811906
379,2026-05-11 16:15:51.931581,0.25891754,-0.7027849,-0.26032007,6.023742,-0.49678615,-4.0811906
380,2026-05-11 16:15:51.934670,0.25891754,-0.7027849,-0.26032007,6.023742,-0.49678615,-4.0811906
381,2026-05-11 16:15:51.937353,0.25891754,-0.7027849,-0.26032007,6.023742,-0.49678615,-4.0811906
382,2026-05-11 16:15:51.939917,0.25891754,-0.7027849,-0.26032007,6.023742,-0.49678615,-4.0811906
383,2026-05-11 16:15:51.942478,0.25891754,-0.7027849,-0.26032007,6.023742,-0.49678615,-4.0811906
384,2026-05-11 16:15:51.945210,0.25891754,-0.7027849,-0.26032007,6.023742,-0.49678615,-4.0811906
385,2026-05-11 16:15:51.947779,0.25891754,-0.7027849,-0.26032007,6.023742,-0.49678615,-4.0811906
386,2026-05-11 16:15:51.950923,0.25891754,-0.7027849,-0.26032007,6.023742,-0.49678615,-4.0811906
387,2026-05-11 16:15:51.953695,0.25891754,-0.7027849,-0.26032007,6.023742,-0.49678615,-4.0811906
388,2026-05-11 16:15:51.956284,0.25891754,-0.7027849,-0.26032007,6.023742,-0.49678615,-4.0811906
389,2026-05-11 16:15:51.958980,0.25891754,-0.7027849,-0.26032007,6.023742,-0.49678615,-4.0811906
390,2026-05-11 16:15:51.961593,0.25891754,-0.7027849,-0.26032007,5.628665,-1.1079569,-3.9495492
391,2026-05-11 16:15:51.964221,0.25891754,-0.7027849,-0.26032007,5.628665,-1.1079569,-3.9495492
392,2026-05-11 16:15:51.967062,0.25891754,-0.7027849,-0.26032007,5.628665,-1.1079569,-3.9495492
393,2026-05-11 16:15:51.970327,0.25891754,-0.7027849,-0.26032007,5.628665,-1.1079569,-3.9495492
394,2026-05-11 16:15:51.973107,0.25891754,-0.7027849,-0.26032007,5.628665,-1.1079569,-3.9495492
395,2026-05-11 16:15:51.975888,0.25891754,-0.7027849,-0.26032007,5.628665,-1.1079569,-3.9495492
396,2026-05-11 16:15:51.978588,0.25891754,-0.7027849,-0.26032007,5.628665,-1.1079569,-3.9495492
397,2026-05-11 16:15:51.981283,0.25891754,-0.7027849,-0.26032007,5.628665,-1.1079569,-3.9495492
398,2026-05-11 16:15:51.984136,0.25891754,-0.7027849,-0.26032007,5.628665,-1.1079569,-3.9495492
399,2026-05-11 16:15:51.987520,0.25891754,-0.7027849,-0.26032007,5.628665,-1.1079569,-3.9495492
400,2026-05-11 16:15:51.990287,0.25891754,-0.7027849,-0.26032007,5.628665,-1.1079569,-3.9495492
401,2026-05-11 16:15:51.992956,0.25891754,-0.7027849,-0.26032007,5.628665,-1.1079569,-3.9495492
402,2026-05-11 16:15:51.995537,0.25891754,-0.7027849,-0.26032007,5.628665,-1.1079569,-3.9495492
403,2026-05-11 16:15:51.998291,0.25891754,-0.7027849,-0.26032007,5.628665,-1.1079569,-3.9495492
404,2026-05-11 16:15:52.001364,0.25891754,-0.7027849,-0.26032007,5.628665,-1.1079569,-3.9495492
405,2026-05-11 16:15:52.004075,0.25891754,-0.7027849,-0.26032007,5.628665,-1.1079569,-3.9495492
406,2026-05-11 16:15:52.006654,0.25891754,-0.7027849,-0.26032007,5.628665,-1.1079569,-3.9495492
407,2026-05-11 16:15:52.009276,0.25891754,-0.7027849,-0.26032007,5.628665,-1.1079569,-3.9495492
408,2026-05-11 16:15:52.011846,0.25891754,-0.7027849,-0.26032007,5.628665,-1.1079569,-3.9495492
409,2026-05-11 16:15:52.014411,0.25891754,-0.7027849,-0.26032007,5.628665,-1.1079569,-3.9495492
410,2026-05-11 16:15:52.017400,0.25891754,-0.7027849,-0.26032007,5.628665,-1.1079569,-3.9495492
411,2026-05-11 16:15:52.020199,0.25891754,-0.7027849,-0.26032007,5.628665,-1.1079569,-3.9495492
412,2026-05-11 16:15:52.022999,0.23172083,-0.6895524,-0.32270175,5.628665,-1.1079569,-3.9495492
413,2026-05-11 16:15:52.025677,0.23172083,-0.6895524,-0.32270175,5.628665,-1.1079569,-3.9495492
414,2026-05-11 16:15:52.028338,0.23172083,-0.6895524,-0.32270175,5.628665,-1.1079569,-3.9495492
415,2026-05-11 16:15:52.031288,0.23172083,-0.6895524,-0.32270175,5.628665,-1.1079569,-3.9495492
416,2026-05-11 16:15:52.034279,0.23172083,-0.6895524,-0.32270175,5.628665,-1.1079569,-3.9495492
417,2026-05-11 16:15:52.036865,0.23172083,-0.6895524,-0.32270175,5.628665,-1.1079569,-3.9495492
418,2026-05-11 16:15:52.039672,0.23172083,-0.6895524,-0.32270175,5.628665,-1.1079569,-3.9495492
419,2026-05-11 16:15:52.042284,0.23172083,-0.6895524,-0.32270175,5.628665,-1.1079569,-3.9495492
420,2026-05-11 16:15:52.044948,0.23172083,-0.6895524,-0.32270175,5.628665,-1.1079569,-3.9495492
421,2026-05-11 16:15:52.047514,0.23172083,-0.6895524,-0.32270175,5.628665,-1.1079569,-3.9495492
422,2026-05-11 16:15:52.050457,0.23172083,-0.6895524,-0.32270175,5.628665,-1.1079569,-3.9495492
423,2026-05-11 16:15:52.053095,0.23172083,-0.6895524,-0.32270175,5.628665,-1.1079569,-3.9495492
424,2026-05-11 16:15:52.055659,0.23172083,-0.6895524,-0.32270175,5.628665,-1.1079569,-3.9495492
425,2026-05-11 16:15:52.058348,0.23172083,-0.6895524,-0.32270175,5.628665,-1.1079569,-3.9495492
426,2026-05-11 16:15:52.060925,0.23172083,-0.6895524,-0.32270175,5.628665,-1.1079569,-3.9495492
427,2026-05-11 16:15:52.063517,0.23172083,-0.6895524,-0.32270175,5.628665,-1.1079569,-3.9495492
428,2026-05-11 16:15:52.066649,0.23172083,-0.6895524,-0.32270175,5.628665,-1.1079569,-3.9495492
429,2026-05-11 16:15:52.069541,0.23172083,-0.6895524,-0.32270175,5.628665,-1.1079569,-3.9495492
430,2026-05-11 16:15:52.072211,0.23172083,-0.6895524,-0.32270175,5.628665,-1.1079569,-3.9495492
431,2026-05-11 16:15:52.074862,0.23172083,-0.6895524,-0.32270175,5.628665,-1.1079569,-3.9495492
432,2026-05-11 16:15:52.077500,0.23172083,-0.6895524,-0.32270175,5.628665,-1.1079569,-3.9495492
433,2026-05-11 16:15:52.080060,0.23172083,-0.6895524,-0.32270175,5.628665,-1.1079569,-3.9495492
434,2026-05-11 16:15:52.083343,0.23172083,-0.6895524,-0.32270175,5.628665,-1.1079569,-3.9495492
435,2026-05-11 16:15:52.086060,0.23172083,-0.6895524,-0.32270175,5.628665,-1.1079569,-3.9495492
436,2026-05-11 16:15:52.088793,0.23172083,-0.6895524,-0.32270175,5.628665,-1.1079569,-3.9495492
437,2026-05-11 16:15:52.091411,0.23172083,-0.6895524,-0.32270175,5.628665,-1.1079569,-3.9495492
438,2026-05-11 16:15:52.094003,0.23172083,-0.6895524,-0.32270175,5.628665,-1.1079569,-3.9495492
439,2026-05-11 16:15:52.096662,0.23172083,-0.6895524,-0.32270175,5.628665,-1.1079569,-3.9495492
440,2026-05-11 16:15:52.099594,0.23172083,-0.6895524,-0.32270175,5.628665,-1.1079569,-3.9495492
441,2026-05-11 16:15:52.102415,0.23172083,-0.6895524,-0.32270175,5.628665,-1.1079569,-3.9495492
442,2026-05-11 16:15:52.105161,0.23172083,-0.6895524,-0.32270175,5.628665,-1.1079569,-3.9495492
443,2026-05-11 16:15:52.107945,0.23172083,-0.6895524,-0.32270175,5.628665,-1.1079569,-3.9495492
444,2026-05-11 16:15:52.110675,0.23172083,-0.6895524,-0.32270175,5.628665,-1.1079569,-3.9495492
445,2026-05-11 16:15:52.113339,0.23172083,-0.6895524,-0.32270175,5.1286716,-1.4077389,-3.808592
446,2026-05-11 16:15:52.116336,0.23172083,-0.6895524,-0.32270175,5.1286716,-1.4077389,-3.808592
447,2026-05-11 16:15:52.119077,0.23172083,-0.6895524,-0.32270175,5.1286716,-1.4077389,-3.808592
448,2026-05-11 16:15:52.121818,0.23172083,-0.6895524,-0.32270175,5.1286716,-1.4077389,-3.808592
449,2026-05-11 16:15:52.124403,0.23172083,-0.6895524,-0.32270175,5.1286716,-1.4077389,-3.808592
450,2026-05-11 16:15:52.127306,0.23172083,-0.6895524,-0.32270175,5.1286716,-1.4077389,-3.808592
451,2026-05-11 16:15:52.129987,0.23172083,-0.6895524,-0.32270175,5.1286716,-1.4077389,-3.808592
452,2026-05-11 16:15:52.133048,0.23172083,-0.6895524,-0.32270175,5.1286716,-1.4077389,-3.808592
453,2026-05-11 16:15:52.135865,0.43301308,-0.6384519,-0.4376475,4.8372893,-1.5016595,-3.7465892
454,2026-05-11 16:15:52.138517,0.43301308,-0.6384519,-0.4376475,4.8372893,-1.5016595,-3.7465892
455,2026-05-11 16:15:52.141060,0.43301308,-0.6384519,-0.4376475,4.8372893,-1.5016595,-3.7465892
456,2026-05-11 16:15:52.143773,0.43301308,-0.6384519,-0.4376475,4.8372893,-1.5016595,-3.7465892
457,2026-05-11 16:15:52.146479,0.43301308,-0.6384519,-0.4376475,4.8372893,-1.5016595,-3.7465892
458,2026-05-11 16:15:52.149567,0.43301308,-0.6384519,-0.4376475,4.8372893,-1.5016595,-3.7465892
459,2026-05-11 16:15:52.152489,0.43301308,-0.6384519,-0.4376475,4.8372893,-1.5016595,-3.7465892
460,2026-05-11 16:15:52.155109,0.43301308,-0.6384519,-0.4376475,4.8372893,-1.5016595,-3.7465892
461,2026-05-11 16:15:52.157841,0.43301308,-0.6384519,-0.4376475,4.8372893,-1.5016595,-3.7465892
462,2026-05-11 16:15:52.160627,0.43301308,-0.6384519,-0.4376475,4.8372893,-1.5016595,-3.7465892
463,2026-05-11 16:15:52.163215,0.43301308,-0.6384519,-0.4376475,4.8372893,-1.5016595,-3.7465892
464,2026-05-11 16:15:52.166088,0.43301308,-0.6384519,-0.4376475,4.8372893,-1.5016595,-3.7465892
465,2026-05-11 16:15:52.168947,0.43301308,-0.6384519,-0.4376475,4.8372893,-1.5016595,-3.7465892
466,2026-05-11 16:15:52.171566,0.43301308,-0.6384519,-0.4376475,4.8372893,-1.5016595,-3.7465892
467,2026-05-11 16:15:52.174203,0.43301308,-0.6384519,-0.4376475,4.8372893,-1.5016595,-3.7465892
468,2026-05-11 16:15:52.176832,0.43301308,-0.6384519,-0.4376475,4.8372893,-1.5016595,-3.7465892
469,2026-05-11 16:15:52.179547,0.43301308,-0.6384519,-0.4376475,4.8372893,-1.5016595,-3.7465892
470,2026-05-11 16:15:52.182577,0.43301308,-0.6384519,-0.4376475,3.647171,-1.4601207,-3.9037344
471,2026-05-11 16:15:52.185595,0.43301308,-0.6384519,-0.4376475,3.647171,-1.4601207,-3.9037344
472,2026-05-11 16:15:52.188283,0.43301308,-0.6384519,-0.4376475,3.647171,-1.4601207,-3.9037344
473,2026-05-11 16:15:52.191040,0.43301308,-0.6384519,-0.4376475,3.647171,-1.4601207,-3.9037344
474,2026-05-11 16:15:52.193612,0.43301308,-0.6384519,-0.4376475,3.647171,-1.4601207,-3.9037344
475,2026-05-11 16:15:52.196284,0.43301308,-0.6384519,-0.4376475,3.647171,-1.4601207,-3.9037344
476,2026-05-11 16:15:52.199183,0.20208496,-0.79370487,-0.15269183,3.647171,-1.4601207,-3.9037344
477,2026-05-11 16:15:52.202147,0.20208496,-0.79370487,-0.15269183,3.647171,-1.4601207,-3.9037344
478,2026-05-11 16:15:52.204703,0.20208496,-0.79370487,-0.15269183,3.647171,-1.4601207,-3.9037344
479,2026-05-11 16:15:52.207490,0.20208496,-0.79370487,-0.15269183,3.647171,-1.4601207,-3.9037344
480,2026-05-11 16:15:52.210117,0.20208496,-0.79370487,-0.15269183,3.647171,-1.4601207,-3.9037344
481,2026-05-11 16:15:52.212670,0.20208496,-0.79370487,-0.15269183,3.647171,-1.4601207,-3.9037344
482,2026-05-11 16:15:52.216064,0.20208496,-0.79370487,-0.15269183,3.647171,-1.4601207,-3.9037344
483,2026-05-11 16:15:52.218864,0.20208496,-0.79370487,-0.15269183,3.647171,-1.4601207,-3.9037344
484,2026-05-11 16:15:52.221637,0.20208496,-0.79370487,-0.15269183,3.647171,-1.4601207,-3.9037344
485,2026-05-11 16:15:52.224237,0.20208496,-0.79370487,-0.15269183,3.647171,-1.4601207,-3.9037344
486,2026-05-11 16:15:52.226985,0.20208496,-0.79370487,-0.15269183,3.647171,-1.4601207,-3.9037344
487,2026-05-11 16:15:52.229551,0.20208496,-0.79370487,-0.15269183,3.647171,-1.4601207,-3.9037344
488,2026-05-11 16:15:52.232433,0.20208496,-0.79370487,-0.15269183,3.647171,-1.4601207,-3.9037344
489,2026-05-11 16:15:52.235399,0.20208496,-0.79370487,-0.15269183,3.647171,-1.4601207,-3.9037344
490,2026-05-11 16:15:52.238015,0.20208496,-0.79370487,-0.15269183,3.647171,-1.4601207,-3.9037344
491,2026-05-11 16:15:52.240781,0.20208496,-0.79370487,-0.15269183,3.647171,-1.4601207,-3.9037344
492,2026-05-11 16:15:52.243387,0.20208496,-0.79370487,-0.15269183,3.647171,-1.4601207,-3.9037344
493,2026-05-11 16:15:52.246036,0.20208496,-0.79370487,-0.15269183,3.647171,-1.4601207,-3.9037344
494,2026-05-11 16:15:52.248772,0.20208496,-0.79370487,-0.15269183,3.647171,-1.4601207,-3.9037344
495,2026-05-11 16:15:52.251958,0.20208496,-0.79370487,-0.15269183,3.647171,-1.4601207,-3.9037344
496,2026-05-11 16:15:52.254563,0.20208496,-0.79370487,-0.15269183,3.647171,-1.4601207,-3.9037344
497,2026-05-11 16:15:52.257321,0.20208496,-0.79370487,-0.15269183,3.647171,-1.4601207,-3.9037344
498,2026-05-11 16:15:52.260010,0.20208496,-0.79370487,-0.15269183,3.647171,-1.4601207,-3.9037344
499,2026-05-11 16:15:52.262688,0.20208496,-0.79370487,-0.15269183,3.647171,-1.4601207,-3.9037344
500,2026-05-11 16:15:52.265783,0.20208496,-0.79370487,-0.15269183,3.647171,-1.4601207,-3.9037344
501,2026-05-11 16:15:52.268613,0.20208496,-0.79370487,-0.15269183,3.647171,-1.4601207,-3.9037344
502,2026-05-11 16:15:52.271180,0.20208496,-0.79370487,-0.15269183,3.647171,-1.4601207,-3.9037344
503,2026-05-11 16:15:52.273911,0.20208496,-0.79370487,-0.15269183,3.647171,-1.4601207,-3.9037344
504,2026-05-11 16:15:52.276531,0.20208496,-0.79370487,-0.15269183,3.647171,-1.4601207,-3.9037344
505,2026-05-11 16:15:52.279114,0.20208496,-0.79370487,-0.15269183,3.647171,-1.4601207,-3.9037344
506,2026-05-11 16:15:52.282344,0.20208496,-0.79370487,-0.15269183,3.647171,-1.4601207,-3.9037344
507,2026-05-11 16:15:52.285082,0.20208496,-0.79370487,-0.15269183,3.647171,-1.4601207,-3.9037344
508,2026-05-11 16:15:52.287782,0.20208496,-0.79370487,-0.15269183,3.647171,-1.4601207,-3.9037344
509,2026-05-11 16:15:52.290391,0.20208496,-0.79370487,-0.15269183,3.647171,-1.4601207,-3.9037344
510,2026-05-11 16:15:52.292986,0.20208496,-0.79370487,-0.15269183,3.647171,-1.4601207,-3.9037344
511,2026-05-11 16:15:52.295690,0.20208496,-0.79370487,-0.15269183,3.647171,-1.4601207,-3.9037344
512,2026-05-11 16:15:52.298283,0.20208496,-0.79370487,-0.15269183,3.647171,-1.4601207,-3.9037344
513,2026-05-11 16:15:52.301495,0.20208496,-0.79370487,-0.15269183,3.647171,-1.4601207,-3.9037344
514,2026-05-11 16:15:52.304363,0.040307228,-0.7941317,-0.021891521,2.1818578,0.4447099,-3.335935
515,2026-05-11 16:15:52.306976,0.040307228,-0.7941317,-0.021891521,2.1818578,0.4447099,-3.335935
516,2026-05-11 16:15:52.309646,-0.10817704,-0.83236563,0.029513916,2.1818578,0.4447099,-3.335935
517,2026-05-11 16:15:52.312292,-0.10817704,-0.83236563,0.029513916,2.1818578,0.4447099,-3.335935
518,2026-05-11 16:15:52.315040,-0.10817704,-0.83236563,0.029513916,2.1818578,0.4447099,-3.335935
519,2026-05-11 16:15:52.318372,-0.10817704,-0.83236563,0.029513916,2.1818578,0.4447099,-3.335935
520,2026-05-11 16:15:52.321044,-0.10817704,-0.83236563,0.029513916,2.1818578,0.4447099,-3.335935
521,2026-05-11 16:15:52.323786,-0.10817704,-0.83236563,0.029513916,2.1818578,0.4447099,-3.335935
522,2026-05-11 16:15:52.326532,-0.10817704,-0.83236563,0.029513916,2.1818578,0.4447099,-3.335935
523,2026-05-11 16:15:52.329243,-0.10817704,-0.83236563,0.029513916,2.1818578,0.4447099,-3.335935
524,2026-05-11 16:15:52.332446,-0.10817704,-0.83236563,0.029513916,2.1818578,0.4447099,-3.335935
525,2026-05-11 16:15:52.335367,-0.10817704,-0.83236563,0.029513916,2.1818578,0.4447099,-3.335935
526,2026-05-11 16:15:52.338151,-0.10817704,-0.83236563,0.029513916,1.9259053,0.8906415,-3.1624494
527,2026-05-11 16:15:52.340905,-0.10817704,-0.83236563,0.029513916,1.9259053,0.8906415,-3.1624494
528,2026-05-11 16:15:52.343537,-0.10817704,-0.83236563,0.029513916,1.9259053,0.8906415,-3.1624494
529,2026-05-11 16:15:52.346240,-0.10817704,-0.83236563,0.029513916,1.9259053,0.8906415,-3.1624494
530,2026-05-11 16:15:52.349298,-0.10817704,-0.83236563,0.029513916,1.9259053,0.8906415,-3.1624494
531,2026-05-11 16:15:52.352146,-0.10817704,-0.83236563,0.029513916,1.9259053,0.8906415,-3.1624494
532,2026-05-11 16:15:52.354752,-0.10817704,-0.83236563,0.029513916,1.9259053,0.8906415,-3.1624494
533,2026-05-11 16:15:52.357498,-0.10817704,-0.83236563,0.029513916,1.9259053,0.8906415,-3.1624494
534,2026-05-11 16:15:52.360127,-0.10817704,-0.83236563,0.029513916,1.9259053,0.8906415,-3.1624494
535,2026-05-11 16:15:52.362842,-0.10817704,-0.83236563,0.029513916,1.9259053,0.8906415,-3.1624494
536,2026-05-11 16:15:52.365734,-0.3228847,-0.8327925,0.053478733,1.9259053,0.8906415,-3.1624494
537,2026-05-11 16:15:52.368620,-0.3228847,-0.8327925,0.053478733,1.9259053,0.8906415,-3.1624494
538,2026-05-11 16:15:52.371283,-0.3228847,-0.8327925,0.053478733,1.9259053,0.8906415,-3.1624494
539,2026-05-11 16:15:52.374064,-0.3228847,-0.8327925,0.053478733,1.9259053,0.8906415,-3.1624494
540,2026-05-11 16:15:52.376766,-0.3228847,-0.8327925,0.053478733,1.9259053,0.8906415,-3.1624494
541,2026-05-11 16:15:52.379349,-0.3228847,-0.8327925,0.053478733,1.9259053,0.8906415,-3.1624494
542,2026-05-11 16:15:52.382338,-0.3228847,-0.8327925,0.053478733,1.9259053,0.8906415,-3.1624494
543,2026-05-11 16:15:52.385016,-0.3228847,-0.8327925,0.053478733,1.9259053,0.8906415,-3.1624494
544,2026-05-11 16:15:52.387774,-0.3228847,-0.8327925,0.053478733,1.9259053,0.8906415,-3.1624494
545,2026-05-11 16:15:52.390385,-0.3228847,-0.8327925,0.053478733,1.9259053,0.8906415,-3.1624494
546,2026-05-11 16:15:52.392933,-0.3228847,-0.8327925,0.053478733,1.9259053,0.8906415,-3.1624494
547,2026-05-11 16:15:52.395725,-0.3228847,-0.8327925,0.053478733,1.9259053,0.8906415,-3.1624494
548,2026-05-11 16:15:52.398344,-0.3228847,-0.8327925,0.053478733,1.9259053,0.8906415,-3.1624494
549,2026-05-11 16:15:52.401631,-0.3228847,-0.8327925,0.053478733,1.9259053,0.8906415,-3.1624494
550,2026-05-11 16:15:52.404447,-0.3228847,-0.8327925,0.053478733,1.9259053,0.8906415,-3.1624494
551,2026-05-11 16:15:52.407040,-0.3228847,-0.8327925,0.053478733,1.9259053,0.8906415,-3.1624494
552,2026-05-11 16:15:52.409643,-0.3228847,-0.8327925,0.053478733,1.9259053,0.8906415,-3.1624494
553,2026-05-11 16:15:52.412396,-0.3228847,-0.8327925,0.053478733,1.9259053,0.8906415,-3.1624494
554,2026-05-11 16:15:52.415019,-0.3228847,-0.8327925,0.053478733,1.9259053,0.8906415,-3.1624494
555,2026-05-11 16:15:52.418538,-0.3228847,-0.8327925,0.053478733,1.9259053,0.8906415,-3.1624494
556,2026-05-11 16:15:52.421482,-0.3228847,-0.8327925,0.053478733,1.9259053,0.8906415,-3.1624494
557,2026-05-11 16:15:52.424305,-0.3228847,-0.8327925,0.053478733,1.6723963,1.3712398,-2.676048
558,2026-05-11 16:15:52.426960,-0.3228847,-0.8327925,0.053478733,1.6723963,1.3712398,-2.676048
559,2026-05-11 16:15:52.429587,-0.3228847,-0.8327925,0.053478733,1.6723963,1.3712398,-2.676048
560,2026-05-11 16:15:52.432501,-0.3228847,-0.8327925,0.053478733,1.6723963,1.3712398,-2.676048
561,2026-05-11 16:15:52.436009,-0.3228847,-0.8327925,0.053478733,1.6723963,1.3712398,-2.676048
562,2026-05-11 16:15:52.438975,-0.3228847,-0.8327925,0.053478733,1.6723963,1.3712398,-2.676048
563,2026-05-11 16:15:52.441685,-0.3228847,-0.8327925,0.053478733,1.6723963,1.3712398,-2.676048
564,2026-05-11 16:15:52.444427,-0.3228847,-0.8327925,0.053478733,1.6723963,1.3712398,-2.676048
565,2026-05-11 16:15:52.447161,-0.3228847,-0.8327925,0.053478733,1.6723963,1.3712398,-2.676048
566,2026-05-11 16:15:52.450126,-0.3228847,-0.8327925,0.053478733,1.6723963,1.3712398,-2.676048
567,2026-05-11 16:15:52.452959,-0.62893915,-0.8823075,0.08866371,1.6723963,1.3712398,-2.676048
568,2026-05-11 16:15:52.455785,-0.62893915,-0.8823075,0.08866371,1.6723963,1.3712398,-2.676048
569,2026-05-11 16:15:52.458409,-0.62893915,-0.8823075,0.08866371,1.6723963,1.3712398,-2.676048
570,2026-05-11 16:15:52.461109,-0.62893915,-0.8823075,0.08866371,1.6723963,1.3712398,-2.676048
571,2026-05-11 16:15:52.463693,-0.62893915,-0.8823075,0.08866371,1.6723963,1.3712398,-2.676048
572,2026-05-11 16:15:52.466828,-0.62893915,-0.8823075,0.08866371,1.6723963,1.3712398,-2.676048
573,2026-05-11 16:15:52.469550,-0.62893915,-0.8823075,0.08866371,1.6723963,1.3712398,-2.676048
574,2026-05-11 16:15:52.472324,-0.62893915,-0.8823075,0.08866371,1.6723963,1.3712398,-2.676048
575,2026-05-11 16:15:52.475000,-0.62893915,-0.8823075,0.08866371,1.6723963,1.3712398,-2.676048
576,2026-05-11 16:15:52.477751,-0.62893915,-0.8823075,0.08866371,1.6723963,1.3712398,-2.676048
577,2026-05-11 16:15:52.480331,-0.62893915,-0.8823075,0.08866371,1.6723963,1.3712398,-2.676048
578,2026-05-11 16:15:52.483428,-0.62893915,-0.8823075,0.08866371,1.6723963,1.3712398,-2.676048
579,2026-05-11 16:15:52.486250,-0.62893915,-0.8823075,0.08866371,1.6174184,1.4608842,-2.3742805
580,2026-05-11 16:15:52.489016,-0.62893915,-0.8823075,0.08866371,1.6174184,1.4608842,-2.3742805
581,2026-05-11 16:15:52.491619,-0.62893915,-0.8823075,0.08866371,1.6174184,1.4608842,-2.3742805
582,2026-05-11 16:15:52.494281,-0.62893915,-0.8823075,0.08866371,1.6174184,1.4608842,-2.3742805
583,2026-05-11 16:15:52.496891,-1.0078636,-0.9231027,0.017379062,1.6174184,1.4608842,-2.3742805
584,2026-05-11 16:15:52.499905,-1.0078636,-0.9231027,0.017379062,1.6174184,1.4608842,-2.3742805
585,2026-05-11 16:15:52.502644,-1.0078636,-0.9231027,0.017379062,1.6174184,1.4608842,-2.3742805
586,2026-05-11 16:15:52.505465,-1.0078636,-0.9231027,0.017379062,1.6174184,1.4608842,-2.3742805
587,2026-05-11 16:15:52.508153,-1.0078636,-0.9231027,0.017379062,1.6174184,1.4608842,-2.3742805
588,2026-05-11 16:15:52.510946,-1.0078636,-0.9231027,0.017379062,1.6174184,1.4608842,-2.3742805
589,2026-05-11 16:15:52.513821,-1.0078636,-0.9231027,0.017379062,1.4442382,1.4892895,-1.6302466
590,2026-05-11 16:15:52.516754,-1.0078636,-0.9231027,0.017379062,1.4442382,1.4892895,-1.6302466
591,2026-05-11 16:15:52.519400,-1.0078636,-0.9231027,0.017379062,1.4442382,1.4892895,-1.6302466
592,2026-05-11 16:15:52.522310,-1.0078636,-0.9231027,0.017379062,1.4442382,1.4892895,-1.6302466
593,2026-05-11 16:15:52.525125,-1.0078636,-0.9231027,0.017379062,1.4442382,1.4892895,-1.6302466
594,2026-05-11 16:15:52.527782,-1.0078636,-0.9231027,0.017379062,1.4442382,1.4892895,-1.6302466
595,2026-05-11 16:15:52.530556,-1.0078636,-0.9231027,0.017379062,1.4442382,1.4892895,-1.6302466
596,2026-05-11 16:15:52.533629,-1.0078636,-0.9231027,0.017379062,1.4442382,1.4892895,-1.6302466
597,2026-05-11 16:15:52.536399,-1.0078636,-0.9231027,0.017379062,1.4442382,1.4892895,-1.6302466
598,2026-05-11 16:15:52.539209,-1.0078636,-0.9231027,0.017379062,1.4442382,1.4892895,-1.6302466
599,2026-05-11 16:15:52.541898,-1.0078636,-0.9231027,0.017379062,1.4442382,1.4892895,-1.6302466
600,2026-05-11 16:15:52.544666,-1.1990334,-0.9355424,-0.034026377,1.4442382,1.4892895,-1.6302466
601,2026-05-11 16:15:52.547388,-1.1990334,-0.9355424,-0.034026377,1.2064588,1.4446963,-0.7874053
602,2026-05-11 16:15:52.550329,-1.1990334,-0.9355424,-0.034026377,1.2064588,1.4446963,-0.7874053
603,2026-05-11 16:15:52.552956,-1.1990334,-0.9355424,-0.034026377,1.2064588,1.4446963,-0.7874053
604,2026-05-11 16:15:52.555713,-1.1990334,-0.9355424,-0.034026377,1.2064588,1.4446963,-0.7874053
605,2026-05-11 16:15:52.558329,-1.1990334,-0.9355424,-0.034026377,1.2064588,1.4446963,-0.7874053
606,2026-05-11 16:15:52.561047,-1.1990334,-0.9355424,-0.034026377,1.2064588,1.4446963,-0.7874053
607,2026-05-11 16:15:52.563653,-1.1990334,-0.9355424,-0.034026377,1.2064588,1.4446963,-0.7874053
608,2026-05-11 16:15:52.566634,-1.1990334,-0.9355424,-0.034026377,1.2064588,1.4446963,-0.7874053
609,2026-05-11 16:15:52.569306,-1.1990334,-0.9355424,-0.034026377,1.2064588,1.4446963,-0.7874053
610,2026-05-11 16:15:52.572296,-1.1990334,-0.9355424,-0.034026377,1.2064588,1.4446963,-0.7874053
611,2026-05-11 16:15:52.575059,-1.1990334,-0.9355424,-0.034026377,1.2064588,1.4446963,-0.7874053
612,2026-05-11 16:15:52.577761,-1.2785501,-0.9145046,-0.046466127,1.0172434,1.5048665,-0.20998493
613,2026-05-11 16:15:52.580414,-1.2785501,-0.9145046,-0.046466127,1.0172434,1.5048665,-0.20998493
614,2026-05-11 16:15:52.583608,-1.2785501,-0.9145046,-0.046466127,1.0172434,1.5048665,-0.20998493
615,2026-05-11 16:15:52.586339,-1.2917217,-0.87956345,-0.077077664,1.0172434,1.5048665,-0.20998493
616,2026-05-11 16:15:52.588942,-1.2917217,-0.87956345,-0.077077664,1.0172434,1.5048665,-0.20998493
617,2026-05-11 16:15:52.591518,-1.2917217,-0.87956345,-0.077077664,1.0172434,1.5048665,-0.20998493
618,2026-05-11 16:15:52.594223,-1.2917217,-0.87956345,-0.077077664,1.0172434,1.5048665,-0.20998493
619,2026-05-11 16:15:52.596801,-1.2917217,-0.87956345,-0.077077664,1.0172434,1.5048665,-0.20998493
620,2026-05-11 16:15:52.600364,-1.2917217,-0.87956345,-0.077077664,1.0172434,1.5048665,-0.20998493
621,2026-05-11 16:15:52.603075,-1.2917217,-0.87956345,-0.077077664,1.0172434,1.5048665,-0.20998493
622,2026-05-11 16:15:52.605648,-1.2917217,-0.87956345,-0.077077664,1.0172434,1.5048665,-0.20998493
623,2026-05-11 16:15:52.608461,-1.2917217,-0.87956345,-0.077077664,1.0172434,1.5048665,-0.20998493
624,2026-05-11 16:15:52.611105,-1.2917217,-0.87956345,-0.077077664,0.5213735,1.6751453,1.206917
625,2026-05-11 16:15:52.613878,-1.2917217,-0.87956345,-0.077077664,0.5213735,1.6751453,1.206917
626,2026-05-11 16:15:52.616866,-1.2917217,-0.87956345,-0.077077664,0.5213735,1.6751453,1.206917
627,2026-05-11 16:15:52.619691,-1.2917217,-0.87956345,-0.077077664,0.5213735,1.6751453,1.206917
628,2026-05-11 16:15:52.622491,-1.2917217,-0.87956345,-0.077077664,0.5213735,1.6751453,1.206917
629,2026-05-11 16:15:52.625109,-1.2917217,-0.87956345,-0.077077664,0.5213735,1.6751453,1.206917
630,2026-05-11 16:15:52.627888,-1.2917217,-0.87956345,-0.077077664,0.5213735,1.6751453,1.206917
631,2026-05-11 16:15:52.630548,-1.2917217,-0.87956345,-0.077077664,0.5213735,1.6751453,1.206917
632,2026-05-11 16:15:52.633733,-1.2917217,-0.87956345,-0.077077664,0.5213735,1.6751453,1.206917
633,2026-05-11 16:15:52.636552,-1.2917217,-0.87956345,-0.077077664,0.5213735,1.6751453,1.206917
634,2026-05-11 16:15:52.639316,-1.2917217,-0.87956345,-0.077077664,0.5213735,1.6751453,1.206917
635,2026-05-11 16:15:52.641904,-1.2917217,-0.87956345,-0.077077664,0.5213735,1.6751453,1.206917
636,2026-05-11 16:15:52.644644,-1.2917217,-0.87956345,-0.077077664,0.5213735,1.6751453,1.206917
637,2026-05-11 16:15:52.647240,-1.2917217,-0.87956345,-0.077077664,0.5213735,1.6751453,1.206917
638,2026-05-11 16:15:52.650506,-1.2917217,-0.87956345,-0.077077664,0.5213735,1.6751453,1.206917
639,2026-05-11 16:15:52.653202,-1.2917217,-0.87956345,-0.077077664,0.5213735,1.6751453,1.206917
640,2026-05-11 16:15:52.655838,-1.2917217,-0.87956345,-0.077077664,0.5213735,1.6751453,1.206917
641,2026-05-11 16:15:52.658404,-1.2917217,-0.87956345,-0.077077664,0.5213735,1.6751453,1.206917
642,2026-05-11 16:15:52.661029,-1.2917217,-0.87956345,-0.077077664,0.5213735,1.6751453,1.206917
643,2026-05-11 16:15:52.663588,-1.2917217,-0.87956345,-0.077077664,0.5213735,1.6751453,1.206917
644,2026-05-11 16:15:52.666727,-1.2917217,-0.87956345,-0.077077664,0.5213735,1.6751453,1.206917
645,2026-05-11 16:15:52.669607,-1.2917217,-0.87956345,-0.077077664,0.23915374,1.6539177,2.0694587
646,2026-05-11 16:15:52.672307,-1.2917217,-0.87956345,-0.077077664,0.23915374,1.6539177,2.0694587
647,2026-05-11 16:15:52.675135,-1.2282424,-0.8965767,-0.08128523,0.23915374,1.6539177,2.0694587
648,2026-05-11 16:15:52.677908,-1.2282424,-0.8965767,-0.08128523,0.23915374,1.6539177,2.0694587
649,2026-05-11 16:15:52.680730,-1.2282424,-0.8965767,-0.08128523,0.23915374,1.6539177,2.0694587
650,2026-05-11 16:15:52.683984,-1.2282424,-0.8965767,-0.08128523,0.23915374,1.6539177,2.0694587
651,2026-05-11 16:15:52.686705,-1.2282424,-0.8965767,-0.08128523,0.23915374,1.6539177,2.0694587
652,2026-05-11 16:15:52.689438,-1.2282424,-0.8965767,-0.08128523,0.23915374,1.6539177,2.0694587
653,2026-05-11 16:15:52.692145,-1.2282424,-0.8965767,-0.08128523,0.23915374,1.6539177,2.0694587
654,2026-05-11 16:15:52.694907,-1.2282424,-0.8965767,-0.08128523,0.23915374,1.6539177,2.0694587
655,2026-05-11 16:15:52.697706,-1.2282424,-0.8965767,-0.08128523,0.23915374,1.6539177,2.0694587
656,2026-05-11 16:15:52.700705,-1.2282424,-0.8965767,-0.08128523,0.23915374,1.6539177,2.0694587
657,2026-05-11 16:15:52.703476,-1.2282424,-0.8965767,-0.08128523,0.23915374,1.6539177,2.0694587
658,2026-05-11 16:15:52.706132,-1.2282424,-0.8965767,-0.08128523,0.23915374,1.6539177,2.0694587
659,2026-05-11 16:15:52.708705,-1.2282424,-0.8965767,-0.08128523,0.23915374,1.6539177,2.0694587
660,2026-05-11 16:15:52.711485,-1.2282424,-0.8965767,-0.08128523,0.23915374,1.6539177,2.0694587
661,2026-05-11 16:15:52.714159,-0.9427989,-0.9491408,-0.070065066,-0.09010262,1.5636623,3.156188
662,2026-05-11 16:15:52.717148,-0.9427989,-0.9491408,-0.070065066,-0.09010262,1.5636623,3.156188
663,2026-05-11 16:15:52.720013,-0.9427989,-0.9491408,-0.070065066,-0.09010262,1.5636623,3.156188
664,2026-05-11 16:15:52.722724,-0.9427989,-0.9491408,-0.070065066,-0.09010262,1.5636623,3.156188
665,2026-05-11 16:15:52.725392,-0.9427989,-0.9491408,-0.070065066,-0.09010262,1.5636623,3.156188
666,2026-05-11 16:15:52.727969,-0.9427989,-0.9491408,-0.070065066,-0.09010262,1.5636623,3.156188
667,2026-05-11 16:15:52.730808,-0.9427989,-0.9491408,-0.070065066,-0.09010262,1.5636623,3.156188
668,2026-05-11 16:15:52.733695,-0.9427989,-0.9491408,-0.070065066,-0.09010262,1.5636623,3.156188
669,2026-05-11 16:15:52.736520,-0.9427989,-0.9491408,-0.070065066,-0.09010262,1.5636623,3.156188
670,2026-05-11 16:15:52.739238,-0.9427989,-0.9491408,-0.070065066,-0.09010262,1.5636623,3.156188
671,2026-05-11 16:15:52.741876,-0.9427989,-0.9491408,-0.070065066,-0.09010262,1.5636623,3.156188
672,2026-05-11 16:15:52.744586,-0.56021565,-0.9918262,-0.055003207,-0.43768495,1.41904,4.275446
673,2026-05-11 16:15:52.747196,-0.56021565,-0.9918262,-0.055003207,-0.43768495,1.41904,4.275446
674,2026-05-11 16:15:52.750319,-0.56021565,-0.9918262,-0.055003207,-0.43768495,1.41904,4.275446
675,2026-05-11 16:15:52.753044,-0.56021565,-0.9918262,-0.055003207,-0.43768495,1.41904,4.275446
676,2026-05-11 16:15:52.755755,-0.56021565,-0.9918262,-0.055003207,-0.43768495,1.41904,4.275446
677,2026-05-11 16:15:52.758455,-0.56021565,-0.9918262,-0.055003207,-0.43768495,1.41904,4.275446
678,2026-05-11 16:15:52.761115,-0.56021565,-0.9918262,-0.055003207,-0.43768495,1.41904,4.275446
679,2026-05-11 16:15:52.763701,-0.56021565,-0.9918262,-0.055003207,-0.43768495,1.41904,4.275446
680,2026-05-11 16:15:52.766666,-0.56021565,-0.9918262,-0.055003207,-0.43768495,1.41904,4.275446
681,2026-05-11 16:15:52.769504,-0.56021565,-0.9918262,-0.055003207,-0.43768495,1.41904,4.275446
682,2026-05-11 16:15:52.772320,-0.33038515,-1.0287185,-0.05469831,-0.43768495,1.41904,4.275446
683,2026-05-11 16:15:52.774915,-0.33038515,-1.0287185,-0.05469831,-0.43768495,1.41904,4.275446
684,2026-05-11 16:15:52.777737,-0.33038515,-1.0287185,-0.05469831,-0.43768495,1.41904,4.275446
685,2026-05-11 16:15:52.780335,-0.33038515,-1.0287185,-0.05469831,-0.43768495,1.41904,4.275446
686,2026-05-11 16:15:52.783540,-0.33038515,-1.0287185,-0.05469831,-0.5561928,1.3880385,4.579504
687,2026-05-11 16:15:52.786498,-0.33038515,-1.0287185,-0.05469831,-0.5561928,1.3880385,4.579504
688,2026-05-11 16:15:52.789248,-0.33038515,-1.0287185,-0.05469831,-0.5561928,1.3880385,4.579504
689,2026-05-11 16:15:52.791982,-0.33038515,-1.0287185,-0.05469831,-0.5561928,1.3880385,4.579504
690,2026-05-11 16:15:52.794671,-0.33038515,-1.0287185,-0.05469831,-0.5561928,1.3880385,4.579504
691,2026-05-11 16:15:52.797371,-0.33038515,-1.0287185,-0.05469831,-0.5561928,1.3880385,4.579504
692,2026-05-11 16:15:52.800542,-0.33038515,-1.0287185,-0.05469831,-0.5561928,1.3880385,4.579504
693,2026-05-11 16:15:52.803358,-0.33038515,-1.0287185,-0.05469831,-0.8918633,1.2799155,5.3765306
694,2026-05-11 16:15:52.806062,-0.33038515,-1.0287185,-0.05469831,-0.8918633,1.2799155,5.3765306
695,2026-05-11 16:15:52.808758,-0.33038515,-1.0287185,-0.05469831,-0.8918633,1.2799155,5.3765306
696,2026-05-11 16:15:52.811484,-0.33038515,-1.0287185,-0.05469831,-0.8918633,1.2799155,5.3765306
697,2026-05-11 16:15:52.814062,-0.33038515,-1.0287185,-0.05469831,-0.8918633,1.2799155,5.3765306
698,2026-05-11 16:15:52.817258,-0.33038515,-1.0287185,-0.05469831,-0.8918633,1.2799155,5.3765306
699,2026-05-11 16:15:52.819946,-0.33038515,-1.0287185,-0.05469831,-0.8918633,1.2799155,5.3765306
700,2026-05-11 16:15:52.822530,-0.33038515,-1.0287185,-0.05469831,-0.8918633,1.2799155,5.3765306
701,2026-05-11 16:15:52.825209,-0.33038515,-1.0287185,-0.05469831,-0.8918633,1.2799155,5.3765306
702,2026-05-11 16:15:52.827859,0.105372004,-1.1021985,-0.028782167,-0.8918633,1.2799155,5.3765306
703,2026-05-11 16:15:52.830464,0.105372004,-1.1021985,-0.028782167,-0.8918633,1.2799155,5.3765306
704,2026-05-11 16:15:52.833401,0.105372004,-1.1021985,-0.028782167,-0.8918633,1.2799155,5.3765306
705,2026-05-11 16:15:52.836250,0.105372004,-1.1021985,-0.028782167,-0.8918633,1.2799155,5.3765306
706,2026-05-11 16:15:52.838849,0.105372004,-1.1021985,-0.028782167,-0.8918633,1.2799155,5.3765306
707,2026-05-11 16:15:52.841405,0.105372004,-1.1021985,-0.028782167,-0.8918633,1.2799155,5.3765306
708,2026-05-11 16:15:52.844119,0.105372004,-1.1021985,-0.028782167,-0.8918633,1.2799155,5.3765306
709,2026-05-11 16:15:52.846999,0.105372004,-1.1021985,-0.028782167,-0.8918633,1.2799155,5.3765306
710,2026-05-11 16:15:52.849932,0.105372004,-1.1021985,-0.028782167,-0.8918633,1.2799155,5.3765306
711,2026-05-11 16:15:52.852855,0.105372004,-1.1021985,-0.028782167,-0.8918633,1.2799155,5.3765306
712,2026-05-11 16:15:52.855485,0.105372004,-1.1021985,-0.028782167,-0.8918633,1.2799155,5.3765306
713,2026-05-11 16:15:52.858046,0.105372004,-1.1021985,-0.028782167,-0.8918633,1.2799155,5.3765306
714,2026-05-11 16:15:52.860766,0.105372004,-1.1021985,-0.028782167,-0.8918633,1.2799155,5.3765306
715,2026-05-11 16:15:52.863381,0.105372004,-1.1021985,-0.028782167,-0.8918633,1.2799155,5.3765306
716,2026-05-11 16:15:52.866636,0.105372004,-1.1021985,-0.028782167,-0.8918633,1.2799155,5.3765306
717,2026-05-11 16:15:52.869467,0.105372004,-1.1021985,-0.028782167,-0.8918633,1.2799155,5.3765306
718,2026-05-11 16:15:52.872100,0.105372004,-1.1021985,-0.028782167,-0.8918633,1.2799155,5.3765306
719,2026-05-11 16:15:52.874861,0.105372004,-1.1021985,-0.028782167,-0.8918633,1.2799155,5.3765306
720,2026-05-11 16:15:52.877538,0.105372004,-1.1021985,-0.028782167,-1.1294898,1.1223122,5.934861
721,2026-05-11 16:15:52.880152,0.105372004,-1.1021985,-0.028782167,-1.1294898,1.1223122,5.934861
722,2026-05-11 16:15:52.883384,0.105372004,-1.1021985,-0.028782167,-1.1294898,1.1223122,5.934861
723,2026-05-11 16:15:52.886129,0.105372004,-1.1021985,-0.028782167,-1.1294898,1.1223122,5.934861
724,2026-05-11 16:15:52.888738,0.105372004,-1.1021985,-0.028782167,-1.1294898,1.1223122,5.934861
725,2026-05-11 16:15:52.891541,0.105372004,-1.1021985,-0.028782167,-1.1294898,1.1223122,5.934861
726,2026-05-11 16:15:52.894279,0.105372004,-1.1021985,-0.028782167,-1.1294898,1.1223122,5.934861
727,2026-05-11 16:15:52.896986,0.105372004,-1.1021985,-0.028782167,-1.1294898,1.1223122,5.934861
728,2026-05-11 16:15:52.899958,0.105372004,-1.1021985,-0.028782167,-1.1294898,1.1223122,5.934861
729,2026-05-11 16:15:52.902794,0.105372004,-1.1021985,-0.028782167,-1.1294898,1.1223122,5.934861
730,2026-05-11 16:15:52.905494,0.105372004,-1.1021985,-0.028782167,-1.1294898,1.1223122,5.934861
731,2026-05-11 16:15:52.908080,0.105372004,-1.1021985,-0.028782167,-1.1294898,1.1223122,5.934861
732,2026-05-11 16:15:52.910961,0.105372004,-1.1021985,-0.028782167,-1.1294898,1.1223122,5.934861
733,2026-05-11 16:15:52.913546,0.105372004,-1.1021985,-0.028782167,-1.1294898,1.1223122,5.934861
734,2026-05-11 16:15:52.925945,0.105372004,-1.1021985,-0.028782167,-1.1294898,1.1223122,5.934861
735,2026-05-11 16:15:52.943029,0.105372004,-1.1021985,-0.028782167,-1.1294898,1.1223122,5.934861
736,2026-05-11 16:15:52.949421,0.105372004,-1.1021985,-0.028782167,-1.1294898,1.1223122,5.934861
737,2026-05-11 16:15:52.955100,0.105372004,-1.1021985,-0.028782167,-1.1294898,1.1223122,5.934861
738,2026-05-11 16:15:52.957836,0.105372004,-1.1021985,-0.028782167,-1.1294898,1.1223122,5.934861
739,2026-05-11 16:15:52.960434,0.105372004,-1.1021985,-0.028782167,-1.1294898,1.1223122,5.934861
740,2026-05-11 16:15:52.963037,0.105372004,-1.1021985,-0.028782167,-1.1294898,1.1223122,5.934861
741,2026-05-11 16:15:52.966323,0.35172784,-1.1359199,0.00030489583,-1.1294898,1.1223122,5.934861
742,2026-05-11 16:15:52.969126,0.35172784,-1.1359199,0.00030489583,-1.1294898,1.1223122,5.934861
743,2026-05-11 16:15:52.971824,0.35172784,-1.1359199,0.00030489583,-1.1294898,1.1223122,5.934861
744,2026-05-11 16:15:52.974706,0.35172784,-1.1359199,0.00030489583,-1.1294898,1.1223122,5.934861
745,2026-05-11 16:15:52.977528,0.35172784,-1.1359199,0.00030489583,-1.2910637,0.9980011,6.3418503
746,2026-05-11 16:15:52.980196,0.35172784,-1.1359199,0.00030489583,-1.2910637,0.9980011,6.3418503
747,2026-05-11 16:15:52.983362,0.35172784,-1.1359199,0.00030489583,-1.2910637,0.9980011,6.3418503
748,2026-05-11 16:15:52.986207,0.35172784,-1.1359199,0.00030489583,-1.2910637,0.9980011,6.3418503
749,2026-05-11 16:15:52.988915,0.35172784,-1.1359199,0.00030489583,-1.2910637,0.9980011,6.3418503
750,2026-05-11 16:15:52.991635,0.58052164,-1.15897,0.038172957,-1.2910637,0.9980011,6.3418503
751,2026-05-11 16:15:52.994233,0.58052164,-1.15897,0.038172957,-1.2910637,0.9980011,6.3418503
752,2026-05-11 16:15:52.997029,0.58052164,-1.15897,0.038172957,-1.2910637,0.9980011,6.3418503
753,2026-05-11 16:15:53.000183,0.831268,-1.1589091,0.06305246,-1.2910637,0.9980011,6.3418503
754,2026-05-11 16:15:53.003124,0.831268,-1.1589091,0.06305246,-1.5476271,0.8770498,6.9823422
755,2026-05-11 16:15:53.005832,0.989387,-1.1519574,0.068052754,-1.6893479,0.8507826,7.275558
756,2026-05-11 16:15:53.008588,0.989387,-1.1519574,0.068052754,-1.6893479,0.8507826,7.275558
757,2026-05-11 16:15:53.011246,0.989387,-1.1519574,0.068052754,-1.6893479,0.8507826,7.275558
758,2026-05-11 16:15:53.013874,0.989387,-1.1519574,0.068052754,-1.6893479,0.8507826,7.275558
759,2026-05-11 16:15:53.017121,0.989387,-1.1519574,0.068052754,-1.6893479,0.8507826,7.275558
760,2026-05-11 16:15:53.019826,0.989387,-1.1519574,0.068052754,-1.6893479,0.8507826,7.275558
761,2026-05-11 16:15:53.022621,0.989387,-1.1519574,0.068052754,-1.6893479,0.8507826,7.275558
762,2026-05-11 16:15:53.025242,0.989387,-1.1519574,0.068052754,-1.6893479,0.8507826,7.275558
763,2026-05-11 16:15:53.027860,0.989387,-1.1519574,0.068052754,-1.6893479,0.8507826,7.275558
764,2026-05-11 16:15:53.030437,0.989387,-1.1519574,0.068052754,-1.6893479,0.8507826,7.275558
765,2026-05-11 16:15:53.033402,0.989387,-1.1519574,0.068052754,-1.6893479,0.8507826,7.275558
766,2026-05-11 16:15:53.036208,0.989387,-1.1519574,0.068052754,-1.6893479,0.8507826,7.275558
767,2026-05-11 16:15:53.038791,0.989387,-1.1519574,0.068052754,-1.6893479,0.8507826,7.275558
768,2026-05-11 16:15:53.041352,0.989387,-1.1519574,0.068052754,-1.6893479,0.8507826,7.275558
769,2026-05-11 16:15:53.044236,0.989387,-1.1519574,0.068052754,-1.6893479,0.8507826,7.275558
770,2026-05-11 16:15:53.046890,0.989387,-1.1519574,0.068052754,-1.6893479,0.8507826,7.275558
771,2026-05-11 16:15:53.050027,0.989387,-1.1519574,0.068052754,-1.6893479,0.8507826,7.275558
772,2026-05-11 16:15:53.052746,0.989387,-1.1519574,0.068052754,-1.6893479,0.8507826,7.275558
773,2026-05-11 16:15:53.055315,0.989387,-1.1519574,0.068052754,-1.6893479,0.8507826,7.275558
774,2026-05-11 16:15:53.057984,0.989387,-1.1519574,0.068052754,-1.6893479,0.8507826,7.275558
775,2026-05-11 16:15:53.060534,0.989387,-1.1519574,0.068052754,-1.6893479,0.8507826,7.275558
776,2026-05-11 16:15:53.063081,0.989387,-1.1519574,0.068052754,-1.6893479,0.8507826,7.275558
777,2026-05-11 16:15:53.066231,0.989387,-1.1519574,0.068052754,-1.6893479,0.8507826,7.275558
778,2026-05-11 16:15:53.068929,0.989387,-1.1519574,0.068052754,-1.6893479,0.8507826,7.275558
779,2026-05-11 16:15:53.071554,0.989387,-1.1519574,0.068052754,-1.6893479,0.8507826,7.275558
780,2026-05-11 16:15:53.074281,0.989387,-1.1519574,0.068052754,-1.6893479,0.8507826,7.275558
781,2026-05-11 16:15:53.077006,0.989387,-1.1519574,0.068052754,-1.6893479,0.8507826,7.275558
782,2026-05-11 16:15:53.079721,0.989387,-1.1519574,0.068052754,-1.6893479,0.8507826,7.275558
783,2026-05-11 16:15:53.082861,0.989387,-1.1519574,0.068052754,-1.6893479,0.8507826,7.275558
784,2026-05-11 16:15:53.085591,0.989387,-1.1519574,0.068052754,-1.6893479,0.8507826,7.275558
785,2026-05-11 16:15:53.088175,0.989387,-1.1519574,0.068052754,-1.6893479,0.8507826,7.275558
786,2026-05-11 16:15:53.090936,0.989387,-1.1519574,0.068052754,-1.6893479,0.8507826,7.275558
787,2026-05-11 16:15:53.093539,0.989387,-1.1519574,0.068052754,-1.6893479,0.8507826,7.275558
788,2026-05-11 16:15:53.096179,1.2557441,-1.1537259,0.08567573,-2.0129538,0.89888823,7.699193
789,2026-05-11 16:15:53.099232,1.2557441,-1.1537259,0.08567573,-2.0129538,0.89888823,7.699193
790,2026-05-11 16:15:53.101898,1.2557441,-1.1537259,0.08567573,-2.0129538,0.89888823,7.699193
791,2026-05-11 16:15:53.104530,1.2557441,-1.1537259,0.08567573,-2.0129538,0.89888823,7.699193
792,2026-05-11 16:15:53.107181,1.2557441,-1.1537259,0.08567573,-2.0129538,0.89888823,7.699193
793,2026-05-11 16:15:53.109782,1.2557441,-1.1537259,0.08567573,-2.0129538,0.89888823,7.699193
794,2026-05-11 16:15:53.112578,1.2557441,-1.1537259,0.08567573,-2.0129538,0.89888823,7.699193
795,2026-05-11 16:15:53.115526,1.3981303,-1.1451888,0.12714157,-2.4662156,1.077719,8.123286
796,2026-05-11 16:15:53.118735,1.3981303,-1.1451888,0.12714157,-2.4662156,1.077719,8.123286
797,2026-05-11 16:15:53.121607,2.32416,-0.740409,0.31843323,-2.5848763,1.0931433,8.184678
798,2026-05-11 16:15:53.124434,2.599054,-0.40910926,0.39392543,-2.5463917,1.0923798,7.963545
799,2026-05-11 16:15:53.127125,2.599054,-0.40910926,0.39392543,-2.5463917,1.0923798,7.963545
800,2026-05-11 16:15:53.129842,2.599054,-0.40910926,0.39392543,-2.5463917,1.0923798,7.963545
801,2026-05-11 16:15:53.132855,2.599054,-0.40910926,0.39392543,-2.5463917,1.0923798,7.963545
802,2026-05-11 16:15:53.135666,2.599054,-0.40910926,0.39392543,-2.5463917,1.0923798,7.963545
803,2026-05-11 16:15:53.138268,2.599054,-0.40910926,0.39392543,-2.5463917,1.0923798,7.963545
804,2026-05-11 16:15:53.140882,2.599054,-0.40910926,0.39392543,-2.5463917,1.0923798,7.963545
805,2026-05-11 16:15:53.143478,2.599054,-0.40910926,0.39392543,-2.5463917,1.0923798,7.963545
806,2026-05-11 16:15:53.146037,2.599054,-0.40910926,0.39392543,-2.5463917,1.0923798,7.963545
807,2026-05-11 16:15:53.148958,2.599054,-0.40910926,0.39392543,-2.5463917,1.0923798,7.963545
808,2026-05-11 16:15:53.151770,2.599054,-0.40910926,0.39392543,-1.9908098,1.0737484,6.6103253
809,2026-05-11 16:15:53.154377,2.599054,-0.40910926,0.39392543,-1.9908098,1.0737484,6.6103253
810,2026-05-11 16:15:53.157193,2.599054,-0.40910926,0.39392543,-1.9908098,1.0737484,6.6103253
811,2026-05-11 16:15:53.159964,2.5946026,-0.15470415,0.34928867,-1.9908098,1.0737484,6.6103253
812,2026-05-11 16:15:53.162719,2.438618,0.172693,0.21421981,-1.9908098,1.0737484,6.6103253
813,2026-05-11 16:15:53.165930,2.438618,0.172693,0.21421981,-1.9908098,1.0737484,6.6103253
814,2026-05-11 16:15:53.168759,2.438618,0.172693,0.21421981,-1.9908098,1.0737484,6.6103253
815,2026-05-11 16:15:53.171487,2.438618,0.172693,0.21421981,-1.9908098,1.0737484,6.6103253
816,2026-05-11 16:15:53.174193,2.438618,0.172693,0.21421981,-1.9908098,1.0737484,6.6103253
817,2026-05-11 16:15:53.176842,2.438618,0.172693,0.21421981,-1.7889189,0.98807454,6.0472603
818,2026-05-11 16:15:53.179703,2.438618,0.172693,0.21421981,-1.7889189,0.98807454,6.0472603
819,2026-05-11 16:15:53.182531,2.438618,0.172693,0.21421981,-1.7889189,0.98807454,6.0472603
820,2026-05-11 16:15:53.186027,2.438618,0.172693,0.21421981,-1.7889189,0.98807454,6.0472603
821,2026-05-11 16:15:53.189001,2.438618,0.172693,0.21421981,-1.7889189,0.98807454,6.0472603
822,2026-05-11 16:15:53.191710,2.438618,0.172693,0.21421981,-1.7889189,0.98807454,6.0472603
823,2026-05-11 16:15:53.194290,2.438618,0.172693,0.21421981,-1.7889189,0.98807454,6.0472603
824,2026-05-11 16:15:53.196929,2.438618,0.172693,0.21421981,-1.7889189,0.98807454,6.0472603
825,2026-05-11 16:15:53.199659,2.438618,0.172693,0.21421981,-1.7889189,0.98807454,6.0472603
826,2026-05-11 16:15:53.202939,2.2461677,0.46258798,0.21958598,-1.7889189,0.98807454,6.0472603
827,2026-05-11 16:15:53.205589,2.2461677,0.46258798,0.21958598,-1.7889189,0.98807454,6.0472603
828,2026-05-11 16:15:53.208222,2.2461677,0.46258798,0.21958598,-1.7889189,0.98807454,6.0472603
829,2026-05-11 16:15:53.210918,2.2461677,0.46258798,0.21958598,-1.7889189,0.98807454,6.0472603
830,2026-05-11 16:15:53.213668,2.2461677,0.46258798,0.21958598,-1.7889189,0.98807454,6.0472603
831,2026-05-11 16:15:53.216566,2.2461677,0.46258798,0.21958598,-1.7889189,0.98807454,6.0472603
832,2026-05-11 16:15:53.219356,2.2461677,0.46258798,0.21958598,-1.7889189,0.98807454,6.0472603
833,2026-05-11 16:15:53.221935,2.2461677,0.46258798,0.21958598,-1.7889189,0.98807454,6.0472603
834,2026-05-11 16:15:53.224513,2.2461677,0.46258798,0.21958598,-1.7889189,0.98807454,6.0472603
835,2026-05-11 16:15:53.227181,2.2461677,0.46258798,0.21958598,-1.7889189,0.98807454,6.0472603
836,2026-05-11 16:15:53.229728,2.2461677,0.46258798,0.21958598,-1.7889189,0.98807454,6.0472603
837,2026-05-11 16:15:53.232670,2.2461677,0.46258798,0.21958598,-1.7889189,0.98807454,6.0472603
838,2026-05-11 16:15:53.235567,2.2461677,0.46258798,0.21958598,-1.7724255,0.55833083,5.780465
839,2026-05-11 16:15:53.238191,2.2461677,0.46258798,0.21958598,-1.7724255,0.55833083,5.780465
840,2026-05-11 16:15:53.240935,2.2461677,0.46258798,0.21958598,-1.7724255,0.55833083,5.780465
841,2026-05-11 16:15:53.243569,2.2461677,0.46258798,0.21958598,-1.7724255,0.55833083,5.780465
842,2026-05-11 16:15:53.246386,2.2461677,0.46258798,0.21958598,-1.7724255,0.55833083,5.780465
843,2026-05-11 16:15:53.249554,2.2461677,0.46258798,0.21958598,-1.7724255,0.55833083,5.780465
844,2026-05-11 16:15:53.252295,2.2461677,0.46258798,0.21958598,-1.7724255,0.55833083,5.780465
845,2026-05-11 16:15:53.254880,2.2461677,0.46258798,0.21958598,-1.7724255,0.55833083,5.780465
846,2026-05-11 16:15:53.257641,2.2461677,0.46258798,0.21958598,-1.7724255,0.55833083,5.780465
847,2026-05-11 16:15:53.260465,2.2461677,0.46258798,0.21958598,-1.7724255,0.55833083,5.780465
848,2026-05-11 16:15:53.263245,2.2461677,0.46258798,0.21958598,-1.7724255,0.55833083,5.780465
849,2026-05-11 16:15:53.266238,2.2461677,0.46258798,0.21958598,-1.643533,0.2237294,5.687766
850,2026-05-11 16:15:53.269141,2.2461677,0.46258798,0.21958598,-1.643533,0.2237294,5.687766
851,2026-05-11 16:15:53.271910,2.2461677,0.46258798,0.21958598,-1.643533,0.2237294,5.687766
852,2026-05-11 16:15:53.274507,2.2461677,0.46258798,0.21958598,-1.643533,0.2237294,5.687766
853,2026-05-11 16:15:53.277127,2.2461677,0.46258798,0.21958598,-1.643533,0.2237294,5.687766
854,2026-05-11 16:15:53.279698,2.2461677,0.46258798,0.21958598,-1.643533,0.2237294,5.687766
855,2026-05-11 16:15:53.282791,2.2461677,0.46258798,0.21958598,-1.643533,0.2237294,5.687766
856,2026-05-11 16:15:53.285578,2.3070858,0.62381685,0.43691576,-1.643533,0.2237294,5.687766
857,2026-05-11 16:15:53.288297,2.3070858,0.62381685,0.43691576,-0.978148,-0.3089451,5.3232327
858,2026-05-11 16:15:53.291036,2.3070858,0.62381685,0.43691576,-0.978148,-0.3089451,5.3232327
859,2026-05-11 16:15:53.293799,2.3070858,0.62381685,0.43691576,-0.978148,-0.3089451,5.3232327
860,2026-05-11 16:15:53.296398,2.3070858,0.62381685,0.43691576,-0.978148,-0.3089451,5.3232327
861,2026-05-11 16:15:53.299537,2.4508138,0.75760514,0.7324208,-0.978148,-0.3089451,5.3232327
862,2026-05-11 16:15:53.302413,2.4508138,0.75760514,0.7324208,-0.978148,-0.3089451,5.3232327
863,2026-05-11 16:15:53.305183,2.626495,0.90486985,0.89121056,-0.978148,-0.3089451,5.3232327
864,2026-05-11 16:15:53.308008,3.0673132,1.1626898,0.7446776,-0.36835176,-0.5484043,5.0326133
865,2026-05-11 16:15:53.310982,3.0979247,1.4942945,-0.10921369,0.7641924,0.0016798794,1.1971432
866,2026-05-11 16:15:53.313689,3.0979247,1.4942945,-0.10921369,0.7641924,0.0016798794,1.1971432
867,2026-05-11 16:15:53.316932,3.0979247,1.4942945,-0.10921369,0.7641924,0.0016798794,1.1971432
868,2026-05-11 16:15:53.319805,3.0979247,1.4942945,-0.10921369,0.7641924,0.0016798794,1.1971432
869,2026-05-11 16:15:53.322480,3.0979247,1.4942945,-0.10921369,0.7641924,0.0016798794,1.1971432
870,2026-05-11 16:15:53.325083,3.0979247,1.4942945,-0.10921369,0.7641924,0.0016798794,1.1971432
871,2026-05-11 16:15:53.327866,2.7969315,1.5736284,-0.3823394,1.4320209,-0.3849978,1.973553
872,2026-05-11 16:15:53.330462,2.7969315,1.5736284,-0.3823394,1.4320209,-0.3849978,1.973553
873,2026-05-11 16:15:53.333671,2.7969315,1.5736284,-0.3823394,1.4320209,-0.3849978,1.973553
874,2026-05-11 16:15:53.336502,2.7969315,1.5736284,-0.3823394,1.4320209,-0.3849978,1.973553
875,2026-05-11 16:15:53.339080,2.7969315,1.5736284,-0.3823394,1.4320209,-0.3849978,1.973553
876,2026-05-11 16:15:53.341691,2.7969315,1.5736284,-0.3823394,1.4320209,-0.3849978,1.973553
877,2026-05-11 16:15:53.344454,2.7969315,1.5736284,-0.3823394,1.4320209,-0.3849978,1.973553
878,2026-05-11 16:15:53.347049,2.7969315,1.5736284,-0.3823394,1.4320209,-0.3849978,1.973553
879,2026-05-11 16:15:53.350241,2.7969315,1.5736284,-0.3823394,1.4320209,-0.3849978,1.973553
880,2026-05-11 16:15:53.352963,2.7969315,1.5736284,-0.3823394,1.4320209,-0.3849978,1.973553
881,2026-05-11 16:15:53.355568,2.7969315,1.5736284,-0.3823394,1.4320209,-0.3849978,1.973553
882,2026-05-11 16:15:53.358186,2.7969315,1.5736284,-0.3823394,1.4320209,-0.3849978,1.973553
883,2026-05-11 16:15:53.360780,2.7969315,1.5736284,-0.3823394,0.1301143,0.2958115,0.97433007
884,2026-05-11 16:15:53.363467,2.7969315,1.5736284,-0.3823394,0.1301143,0.2958115,0.97433007
885,2026-05-11 16:15:53.366315,2.7969315,1.5736284,-0.3823394,0.1301143,0.2958115,0.97433007
886,2026-05-11 16:15:53.369192,2.7969315,1.5736284,-0.3823394,0.1301143,0.2958115,0.97433007
887,2026-05-11 16:15:53.371817,2.7969315,1.5736284,-0.3823394,0.1301143,0.2958115,0.97433007
888,2026-05-11 16:15:53.374422,2.7969315,1.5736284,-0.3823394,0.1301143,0.2958115,0.97433007
889,2026-05-11 16:15:53.377220,2.7969315,1.5736284,-0.3823394,0.1301143,0.2958115,0.97433007
890,2026-05-11 16:15:53.380086,2.7969315,1.5736284,-0.3823394,0.1301143,0.2958115,0.97433007
891,2026-05-11 16:15:53.383064,2.7969315,1.5736284,-0.3823394,0.1301143,0.2958115,0.97433007
892,2026-05-11 16:15:53.385874,2.5118537,1.6139356,-0.55283713,0.1301143,0.2958115,0.97433007
893,2026-05-11 16:15:53.388530,2.5118537,1.6139356,-0.55283713,0.1301143,0.2958115,0.97433007
894,2026-05-11 16:15:53.391103,2.5118537,1.6139356,-0.55283713,0.1301143,0.2958115,0.97433007
895,2026-05-11 16:15:53.393690,2.5118537,1.6139356,-0.55283713,0.1301143,0.2958115,0.97433007
896,2026-05-11 16:15:53.396229,2.5118537,1.6139356,-0.55283713,0.1301143,0.2958115,0.97433007
897,2026-05-11 16:15:53.399049,2.5118537,1.6139356,-0.55283713,0.1301143,0.2958115,0.97433007
898,2026-05-11 16:15:53.402117,2.5118537,1.6139356,-0.55283713,0.1301143,0.2958115,0.97433007
899,2026-05-11 16:15:53.404887,2.5118537,1.6139356,-0.55283713,0.1301143,0.2958115,0.97433007
900,2026-05-11 16:15:53.407626,2.5118537,1.6139356,-0.55283713,-1.2961034,0.6632469,0.7098254
901,2026-05-11 16:15:53.410287,2.5118537,1.6139356,-0.55283713,-1.2961034,0.6632469,0.7098254
902,2026-05-11 16:15:53.413113,2.5118537,1.6139356,-0.55283713,-1.2961034,0.6632469,0.7098254
903,2026-05-11 16:15:53.416110,2.5118537,1.6139356,-0.55283713,-1.2961034,0.6632469,0.7098254
904,2026-05-11 16:15:53.418958,2.5118537,1.6139356,-0.55283713,-1.2961034,0.6632469,0.7098254
905,2026-05-11 16:15:53.421604,2.4259343,1.718454,-0.34934965,-1.2961034,0.6632469,0.7098254
906,2026-05-11 16:15:53.424197,2.4259343,1.718454,-0.34934965,-1.2961034,0.6632469,0.7098254
907,2026-05-11 16:15:53.427074,2.4259343,1.718454,-0.34934965,-1.2961034,0.6632469,0.7098254
908,2026-05-11 16:15:53.429759,2.4259343,1.718454,-0.34934965,-1.2961034,0.6632469,0.7098254
909,2026-05-11 16:15:53.432890,2.4259343,1.718454,-0.34934965,-1.2961034,0.6632469,0.7098254
910,2026-05-11 16:15:53.435640,2.4259343,1.718454,-0.34934965,-1.2961034,0.6632469,0.7098254
911,2026-05-11 16:15:53.438235,2.4259343,1.718454,-0.34934965,-1.2961034,0.6632469,0.7098254
912,2026-05-11 16:15:53.441147,2.4259343,1.718454,-0.34934965,-1.2961034,0.6632469,0.7098254
913,2026-05-11 16:15:53.443813,2.4259343,1.718454,-0.34934965,-1.2961034,0.6632469,0.7098254
914,2026-05-11 16:15:53.446441,2.4259343,1.718454,-0.34934965,-1.2961034,0.6632469,0.7098254
915,2026-05-11 16:15:53.449642,2.4259343,1.718454,-0.34934965,-1.2961034,0.6632469,0.7098254
916,2026-05-11 16:15:53.452499,2.4259343,1.718454,-0.34934965,-1.2961034,0.6632469,0.7098254
917,2026-05-11 16:15:53.455163,2.4259343,1.718454,-0.34934965,-1.2961034,0.6632469,0.7098254
918,2026-05-11 16:15:53.457966,2.6409466,1.7612612,0.13019052,-1.5425875,0.36163223,0.05757405
919,2026-05-11 16:15:53.460618,2.6409466,1.7612612,0.13019052,-1.5425875,0.36163223,0.05757405
920,2026-05-11 16:15:53.463427,2.819311,1.7106487,0.45746574,-0.9295842,0.22556199,-0.67164636
921,2026-05-11 16:15:53.468469,2.959746,1.665158,0.74754363,-0.9295842,0.22556199,-0.67164636
922,2026-05-11 16:15:53.472123,2.959746,1.665158,0.74754363,-0.9295842,0.22556199,-0.67164636
923,2026-05-11 16:15:53.475059,2.959746,1.665158,0.74754363,-0.9295842,0.22556199,-0.67164636
924,2026-05-11 16:15:53.477767,2.959746,1.665158,0.74754363,-0.9295842,0.22556199,-0.67164636
925,2026-05-11 16:15:53.480448,2.959746,1.665158,0.74754363,-0.9295842,0.22556199,-0.67164636
926,2026-05-11 16:15:53.483701,2.959746,1.665158,0.74754363,-0.9295842,0.22556199,-0.67164636
927,2026-05-11 16:15:53.486608,2.959746,1.665158,0.74754363,-0.9295842,0.22556199,-0.67164636
928,2026-05-11 16:15:53.489325,2.959746,1.665158,0.74754363,-0.9295842,0.22556199,-0.67164636
929,2026-05-11 16:15:53.491951,2.959746,1.665158,0.74754363,-0.9295842,0.22556199,-0.67164636
930,2026-05-11 16:15:53.494728,2.959746,1.665158,0.74754363,-0.9295842,0.22556199,-0.67164636
931,2026-05-11 16:15:53.497490,2.959746,1.665158,0.74754363,-0.9295842,0.22556199,-0.67164636
932,2026-05-11 16:15:53.500629,2.959746,1.665158,0.74754363,-0.9295842,0.22556199,-0.67164636
933,2026-05-11 16:15:53.503339,2.959746,1.665158,0.74754363,-0.9295842,0.22556199,-0.67164636
934,2026-05-11 16:15:53.506136,2.959746,1.665158,0.74754363,-0.9295842,0.22556199,-0.67164636
935,2026-05-11 16:15:53.508859,2.959746,1.665158,0.74754363,-0.9295842,0.22556199,-0.67164636
936,2026-05-11 16:15:53.511580,2.959746,1.665158,0.74754363,-0.9295842,0.22556199,-0.67164636
937,2026-05-11 16:15:53.514164,2.959746,1.665158,0.74754363,-0.9295842,0.22556199,-0.67164636
938,2026-05-11 16:15:53.517288,2.959746,1.665158,0.74754363,-0.9295842,0.22556199,-0.67164636
939,2026-05-11 16:15:53.520050,2.9717586,1.6666217,0.8055348,-0.9295842,0.22556199,-0.67164636
940,2026-05-11 16:15:53.522645,2.9717586,1.6666217,0.8055348,-0.9295842,0.22556199,-0.67164636
941,2026-05-11 16:15:53.525437,2.9717586,1.6666217,0.8055348,-0.9295842,0.22556199,-0.67164636
942,2026-05-11 16:15:53.528021,2.9717586,1.6666217,0.8055348,-0.9295842,0.22556199,-0.67164636
943,2026-05-11 16:15:53.530701,2.9717586,1.6666217,0.8055348,-0.9295842,0.22556199,-0.67164636
944,2026-05-11 16:15:53.533574,2.9717586,1.6666217,0.8055348,-0.9295842,0.22556199,-0.67164636
945,2026-05-11 16:15:53.536243,2.9717586,1.6666217,0.8055348,-0.9295842,0.22556199,-0.67164636
946,2026-05-11 16:15:53.538904,2.9717586,1.6666217,0.8055348,-0.51053065,0.11759156,-1.039998
947,2026-05-11 16:15:53.541452,2.9717586,1.6666217,0.8055348,-0.51053065,0.11759156,-1.039998
948,2026-05-11 16:15:53.544061,2.9717586,1.6666217,0.8055348,-0.51053065,0.11759156,-1.039998
949,2026-05-11 16:15:53.546830,2.9717586,1.6666217,0.8055348,-0.51053065,0.11759156,-1.039998
950,2026-05-11 16:15:53.549709,2.9717586,1.6666217,0.8055348,-0.51053065,0.11759156,-1.039998
951,2026-05-11 16:15:53.552440,2.9717586,1.6666217,0.8055348,-0.51053065,0.11759156,-1.039998
952,2026-05-11 16:15:53.555228,2.9717586,1.6666217,0.8055348,-0.51053065,0.11759156,-1.039998
953,2026-05-11 16:15:53.558069,2.9717586,1.6666217,0.8055348,-0.51053065,0.11759156,-1.039998
954,2026-05-11 16:15:53.560747,2.9717586,1.6666217,0.8055348,-0.51053065,0.11759156,-1.039998
955,2026-05-11 16:15:53.563341,2.9717586,1.6666217,0.8055348,-0.51053065,0.11759156,-1.039998
956,2026-05-11 16:15:53.566485,2.9717586,1.6666217,0.8055348,-0.51053065,0.11759156,-1.039998
957,2026-05-11 16:15:53.569285,2.9717586,1.6666217,0.8055348,-0.51053065,0.11759156,-1.039998
958,2026-05-11 16:15:53.572084,2.9717586,1.6666217,0.8055348,-0.51053065,0.11759156,-1.039998
959,2026-05-11 16:15:53.574714,2.9717586,1.6666217,0.8055348,-0.51053065,0.11759156,-1.039998
960,2026-05-11 16:15:53.577528,2.9717586,1.6666217,0.8055348,-0.51053065,0.11759156,-1.039998
961,2026-05-11 16:15:53.580153,2.9717586,1.6666217,0.8055348,-0.51053065,0.11759156,-1.039998
962,2026-05-11 16:15:53.583157,2.9717586,1.6666217,0.8055348,-0.51053065,0.11759156,-1.039998
963,2026-05-11 16:15:53.585830,2.9717586,1.6666217,0.8055348,-0.51053065,0.11759156,-1.039998
964,2026-05-11 16:15:53.588706,2.9717586,1.6666217,0.8055348,-0.51053065,0.11759156,-1.039998
965,2026-05-11 16:15:53.591370,2.9717586,1.6666217,0.8055348,-0.51053065,0.11759156,-1.039998
966,2026-05-11 16:15:53.593975,2.9717586,1.6666217,0.8055348,-0.51053065,0.11759156,-1.039998
967,2026-05-11 16:15:53.596770,2.9717586,1.6666217,0.8055348,-0.51053065,0.11759156,-1.039998
968,2026-05-11 16:15:53.599701,2.9717586,1.6666217,0.8055348,-0.51053065,0.11759156,-1.039998
969,2026-05-11 16:15:53.602500,2.9717586,1.6666217,0.8055348,-0.51053065,0.11759156,-1.039998
970,2026-05-11 16:15:53.605249,3.0651789,1.6052155,0.749312,-0.51053065,0.11759156,-1.039998
971,2026-05-11 16:15:53.607833,3.0651789,1.6052155,0.749312,-0.51053065,0.11759156,-1.039998
972,2026-05-11 16:15:53.610484,3.0651789,1.6052155,0.749312,-0.51053065,0.11759156,-1.039998
973,2026-05-11 16:15:53.613055,3.0651789,1.6052155,0.749312,-0.51053065,0.11759156,-1.039998
974,2026-05-11 16:15:53.616059,3.0651789,1.6052155,0.749312,-0.51053065,0.11759156,-1.039998
975,2026-05-11 16:15:53.618775,3.0651789,1.6052155,0.749312,-0.51053065,0.11759156,-1.039998
976,2026-05-11 16:15:53.621382,3.0651789,1.6052155,0.749312,-0.51053065,0.11759156,-1.039998
977,2026-05-11 16:15:53.624114,3.0651789,1.6052155,0.749312,0.36987892,-0.22220223,-1.8707749
978,2026-05-11 16:15:53.626886,3.0651789,1.6052155,0.749312,0.36987892,-0.22220223,-1.8707749
979,2026-05-11 16:15:53.629766,3.2725081,1.4633172,0.5846682,0.6785186,-0.34269542,-2.5308146
980,2026-05-11 16:15:53.632849,3.2725081,1.4633172,0.5846682,0.6785186,-0.34269542,-2.5308146
981,2026-05-11 16:15:53.635594,3.2725081,1.4633172,0.5846682,0.6785186,-0.34269542,-2.5308146
982,2026-05-11 16:15:53.638172,3.2725081,1.4633172,0.5846682,0.6785186,-0.34269542,-2.5308146
983,2026-05-11 16:15:53.640958,3.2725081,1.4633172,0.5846682,0.6785186,-0.34269542,-2.5308146
984,2026-05-11 16:15:53.643556,3.2725081,1.4633172,0.5846682,0.6785186,-0.34269542,-2.5308146
985,2026-05-11 16:15:53.646111,3.2725081,1.4633172,0.5846682,0.6785186,-0.34269542,-2.5308146
986,2026-05-11 16:15:53.649494,3.2725081,1.4633172,0.5846682,0.6785186,-0.34269542,-2.5308146
987,2026-05-11 16:15:53.652353,3.2725081,1.4633172,0.5846682,0.6785186,-0.34269542,-2.5308146
988,2026-05-11 16:15:53.655036,3.2725081,1.4633172,0.5846682,0.6785186,-0.34269542,-2.5308146
989,2026-05-11 16:15:53.657826,3.3605618,1.3522741,0.5014927,0.6785186,-0.34269542,-2.5308146
990,2026-05-11 16:15:53.660635,3.3605618,1.3522741,0.5014927,0.7165449,-0.2359467,-3.1367931
991,2026-05-11 16:15:53.663256,3.3605618,1.3522741,0.5014927,0.7165449,-0.2359467,-3.1367931
992,2026-05-11 16:15:53.666246,3.3605618,1.3522741,0.5014927,0.7165449,-0.2359467,-3.1367931
993,2026-05-11 16:15:53.669065,3.3605618,1.3522741,0.5014927,0.7165449,-0.2359467,-3.1367931
994,2026-05-11 16:15:53.671686,3.3605618,1.3522741,0.5014927,0.7165449,-0.2359467,-3.1367931
995,2026-05-11 16:15:53.674461,3.3605618,1.3522741,0.5014927,0.7165449,-0.2359467,-3.1367931
996,2026-05-11 16:15:53.677258,3.3605618,1.3522741,0.5014927,0.7165449,-0.2359467,-3.1367931
997,2026-05-11 16:15:53.679999,3.3605618,1.3522741,0.5014927,0.7165449,-0.2359467,-3.1367931
998,2026-05-11 16:15:53.682979,3.3605618,1.3522741,0.5014927,0.7165449,-0.2359467,-3.1367931
999,2026-05-11 16:15:53.685904,3.3605618,1.3522741,0.5014927,0.7165449,-0.2359467,-3.1367931
1000,2026-05-11 16:15:53.688616,3.3605618,1.3522741,0.5014927,0.7165449,-0.2359467,-3.1367931
1001,2026-05-11 16:15:53.691251,3.3605618,1.3522741,0.5014927,0.7165449,-0.2359467,-3.1367931
1002,2026-05-11 16:15:53.694130,3.3605618,1.3522741,0.5014927,0.7165449,-0.2359467,-3.1367931
1003,2026-05-11 16:15:53.696857,3.3422074,1.1870815,0.45472166,0.59895337,0.027641652,-3.7360518
1004,2026-05-11 16:15:53.700246,3.3422074,1.1870815,0.45472166,0.59895337,0.027641652,-3.7360518
1005,2026-05-11 16:15:53.703101,3.3422074,1.1870815,0.45472166,0.59895337,0.027641652,-3.7360518
1006,2026-05-11 16:15:53.705730,3.3422074,1.1870815,0.45472166,0.59895337,0.027641652,-3.7360518
1007,2026-05-11 16:15:53.708481,3.3422074,1.1870815,0.45472166,0.59895337,0.027641652,-3.7360518
1008,2026-05-11 16:15:53.711097,3.3422074,1.1870815,0.45472166,0.59895337,0.027641652,-3.7360518
1009,2026-05-11 16:15:53.713827,3.2393353,1.0057294,0.45624614,0.59895337,0.027641652,-3.7360518
1010,2026-05-11 16:15:53.717438,3.2393353,1.0057294,0.45624614,0.59895337,0.027641652,-3.7360518
1011,2026-05-11 16:15:53.720271,3.2393353,1.0057294,0.45624614,0.41416663,0.3669773,-4.2282567
1012,2026-05-11 16:15:53.723017,3.0406654,0.7848019,0.5497882,0.22586742,0.8190176,-4.781395
1013,2026-05-11 16:15:53.725698,2.734367,0.45240447,0.7565685,0.32513303,0.84635377,-5.0121493
1014,2026-05-11 16:15:53.728300,2.734367,0.45240447,0.7565685,0.32513303,0.84635377,-5.0121493
1015,2026-05-11 16:15:53.730860,2.734367,0.45240447,0.7565685,0.32513303,0.84635377,-5.0121493
1016,2026-05-11 16:15:53.733805,2.734367,0.45240447,0.7565685,0.68325275,0.6739371,-5.2711563
1017,2026-05-11 16:15:53.736456,2.734367,0.45240447,0.7565685,0.68325275,0.6739371,-5.2711563
1018,2026-05-11 16:15:53.739248,2.734367,0.45240447,0.7565685,0.68325275,0.6739371,-5.2711563
1019,2026-05-11 16:15:53.741985,2.734367,0.45240447,0.7565685,0.68325275,0.6739371,-5.2711563
1020,2026-05-11 16:15:53.744787,2.734367,0.45240447,0.7565685,0.68325275,0.6739371,-5.2711563
1021,2026-05-11 16:15:53.747640,2.734367,0.45240447,0.7565685,0.68325275,0.6739371,-5.2711563
1022,2026-05-11 16:15:53.750807,2.734367,0.45240447,0.7565685,0.68325275,0.6739371,-5.2711563
1023,2026-05-11 16:15:53.753549,2.734367,0.45240447,0.7565685,0.68325275,0.6739371,-5.2711563
1024,2026-05-11 16:15:53.756255,2.734367,0.45240447,0.7565685,0.68325275,0.6739371,-5.2711563
1025,2026-05-11 16:15:53.758858,2.734367,0.45240447,0.7565685,0.68325275,0.6739371,-5.2711563
1026,2026-05-11 16:15:53.761804,2.4953895,0.2876997,0.73662835,1.0290025,0.47555858,-5.3910384
1027,2026-05-11 16:15:53.764631,2.4953895,0.2876997,0.73662835,1.0290025,0.47555858,-5.3910384
1028,2026-05-11 16:15:53.767744,2.4953895,0.2876997,0.73662835,1.0290025,0.47555858,-5.3910384
1029,2026-05-11 16:15:53.770583,2.4953895,0.2876997,0.73662835,1.0290025,0.47555858,-5.3910384
1030,2026-05-11 16:15:53.773263,2.4953895,0.2876997,0.73662835,1.0290025,0.47555858,-5.3910384
1031,2026-05-11 16:15:53.775864,2.4953895,0.2876997,0.73662835,1.0290025,0.47555858,-5.3910384
1032,2026-05-11 16:15:53.778475,2.4953895,0.2876997,0.73662835,1.0290025,0.47555858,-5.3910384
1033,2026-05-11 16:15:53.781042,2.4953895,0.2876997,0.73662835,1.0290025,0.47555858,-5.3910384
1034,2026-05-11 16:15:53.784219,2.4953895,0.2876997,0.73662835,1.0290025,0.47555858,-5.3910384
1035,2026-05-11 16:15:53.787080,2.4953895,0.2876997,0.73662835,1.0290025,0.47555858,-5.3910384
1036,2026-05-11 16:15:53.789760,2.4953895,0.2876997,0.73662835,1.0290025,0.47555858,-5.3910384
1037,2026-05-11 16:15:53.792403,2.4953895,0.2876997,0.73662835,1.0290025,0.47555858,-5.3910384
1038,2026-05-11 16:15:53.795126,2.3014758,0.12549512,0.6580262,1.0290025,0.47555858,-5.3910384
1039,2026-05-11 16:15:53.797842,2.3014758,0.12549512,0.6580262,1.0290025,0.47555858,-5.3910384
1040,2026-05-11 16:15:53.800853,2.3014758,0.12549512,0.6580262,1.0290025,0.47555858,-5.3910384
1041,2026-05-11 16:15:53.803624,2.3014758,0.12549512,0.6580262,1.0290025,0.47555858,-5.3910384
1042,2026-05-11 16:15:53.806335,2.3014758,0.12549512,0.6580262,1.3115277,0.31703907,-5.4750323
1043,2026-05-11 16:15:53.809059,1.6544868,-0.19464551,0.48905292,1.6018413,0.20631973,-5.561012
1044,2026-05-11 16:15:53.811739,1.6544868,-0.19464551,0.48905292,1.6018413,0.20631973,-5.561012
1045,2026-05-11 16:15:53.814932,1.3473347,-0.3352025,0.3881324,1.7218764,0.1994475,-5.5136695
1046,2026-05-11 16:15:53.817895,1.3473347,-0.3352025,0.3881324,1.7218764,0.1994475,-5.5136695
1047,2026-05-11 16:15:53.820503,1.3473347,-0.3352025,0.3881324,1.7218764,0.1994475,-5.5136695
1048,2026-05-11 16:15:53.823159,1.3473347,-0.3352025,0.3881324,1.7218764,0.1994475,-5.5136695
1049,2026-05-11 16:15:53.825717,1.3473347,-0.3352025,0.3881324,1.7218764,0.1994475,-5.5136695
1050,2026-05-11 16:15:53.828548,1.3473347,-0.3352025,0.3881324,1.7218764,0.1994475,-5.5136695
1051,2026-05-11 16:15:53.831329,1.3473347,-0.3352025,0.3881324,1.8220583,0.28527406,-5.3664513
1052,2026-05-11 16:15:53.834696,1.3473347,-0.3352025,0.3881324,1.8220583,0.28527406,-5.3664513
1053,2026-05-11 16:15:53.837598,1.3473347,-0.3352025,0.3881324,1.8220583,0.28527406,-5.3664513
1054,2026-05-11 16:15:53.840251,1.3473347,-0.3352025,0.3881324,1.8220583,0.28527406,-5.3664513
1055,2026-05-11 16:15:53.842847,1.3473347,-0.3352025,0.3881324,1.8220583,0.28527406,-5.3664513
1056,2026-05-11 16:15:53.845680,0.8065714,-0.5282015,0.27056456,1.9399554,0.3755294,-4.9151745
1057,2026-05-11 16:15:53.848801,0.8065714,-0.5282015,0.27056456,1.9399554,0.3755294,-4.9151745
1058,2026-05-11 16:15:53.851605,0.8065714,-0.5282015,0.27056456,1.9399554,0.3755294,-4.9151745
1059,2026-05-11 16:15:53.854168,0.8065714,-0.5282015,0.27056456,1.9399554,0.3755294,-4.9151745
1060,2026-05-11 16:15:53.856985,0.8065714,-0.5282015,0.27056456,1.9399554,0.3755294,-4.9151745
1061,2026-05-11 16:15:53.859733,0.8065714,-0.5282015,0.27056456,1.9399554,0.3755294,-4.9151745
1062,2026-05-11 16:15:53.862405,0.8065714,-0.5282015,0.27056456,1.9399554,0.3755294,-4.9151745
1063,2026-05-11 16:15:53.865078,0.8065714,-0.5282015,0.27056456,1.9399554,0.3755294,-4.9151745
1064,2026-05-11 16:15:53.868135,0.8065714,-0.5282015,0.27056456,1.9399554,0.3755294,-4.9151745
1065,2026-05-11 16:15:53.870887,0.8065714,-0.5282015,0.27056456,2.1325307,0.3126103,-4.6097417
1066,2026-05-11 16:15:53.873481,0.8065714,-0.5282015,0.27056456,2.1325307,0.3126103,-4.6097417
1067,2026-05-11 16:15:53.876312,0.8065714,-0.5282015,0.27056456,2.1325307,0.3126103,-4.6097417
1068,2026-05-11 16:15:53.879166,0.5401535,-0.676198,0.2886144,2.1325307,0.3126103,-4.6097417
1069,2026-05-11 16:15:53.882206,0.044758707,-1.2948927,0.04396598,3.5874588,-1.1158981,-4.276362
1070,2026-05-11 16:15:53.885172,0.044758707,-1.2948927,0.04396598,3.5874588,-1.1158981,-4.276362
1071,2026-05-11 16:15:53.887856,0.044758707,-1.2948927,0.04396598,3.5874588,-1.1158981,-4.276362
1072,2026-05-11 16:15:53.890433,0.044758707,-1.2948927,0.04396598,3.5874588,-1.1158981,-4.276362
1073,2026-05-11 16:15:53.893264,0.044758707,-1.2948927,0.04396598,3.7882807,-1.7808249,-4.236809
1074,2026-05-11 16:15:53.896043,-0.1835473,-1.4203267,-0.16080207,3.7882807,-1.7808249,-4.236809
1075,2026-05-11 16:15:53.899089,-0.1835473,-1.4203267,-0.16080207,3.7882807,-1.7808249,-4.236809
1076,2026-05-11 16:15:53.901990,-0.1835473,-1.4203267,-0.16080207,3.7882807,-1.7808249,-4.236809
1077,2026-05-11 16:15:53.904716,-0.1835473,-1.4203267,-0.16080207,3.7882807,-1.7808249,-4.236809
1078,2026-05-11 16:15:53.907426,-0.5395436,-1.4952092,-0.45649004,3.7882807,-1.7808249,-4.236809
1079,2026-05-11 16:15:53.910209,-0.5395436,-1.4952092,-0.45649004,3.4171803,-2.28036,-3.8892262
1080,2026-05-11 16:15:53.912928,-0.5395436,-1.4952092,-0.45649004,3.4171803,-2.28036,-3.8892262
1081,2026-05-11 16:15:53.915964,-0.5395436,-1.4952092,-0.45649004,3.4171803,-2.28036,-3.8892262
1082,2026-05-11 16:15:53.918894,-0.5395436,-1.4952092,-0.45649004,3.4171803,-2.28036,-3.8892262
1083,2026-05-11 16:15:53.921595,-0.5395436,-1.4952092,-0.45649004,3.4171803,-2.28036,-3.8892262
1084,2026-05-11 16:15:53.924206,-0.5395436,-1.4952092,-0.45649004,3.4171803,-2.28036,-3.8892262
1085,2026-05-11 16:15:53.927094,-0.5395436,-1.4952092,-0.45649004,3.4171803,-2.28036,-3.8892262
1086,2026-05-11 16:15:53.929801,-0.5395436,-1.4952092,-0.45649004,3.4171803,-2.28036,-3.8892262
1087,2026-05-11 16:15:53.932951,-0.5395436,-1.4952092,-0.45649004,3.4171803,-2.28036,-3.8892262
1088,2026-05-11 16:15:53.935735,-0.5395436,-1.4952092,-0.45649004,3.4171803,-2.28036,-3.8892262
1089,2026-05-11 16:15:53.938388,-0.5395436,-1.4952092,-0.45649004,3.4171803,-2.28036,-3.8892262
1090,2026-05-11 16:15:53.941240,-0.5395436,-1.4952092,-0.45649004,3.4171803,-2.28036,-3.8892262
1091,2026-05-11 16:15:53.944118,-0.5395436,-1.4952092,-0.45649004,2.941469,-2.2143865,-3.5700493
1092,2026-05-11 16:15:53.946808,-0.5395436,-1.4952092,-0.45649004,2.941469,-2.2143865,-3.5700493
1093,2026-05-11 16:15:53.950102,-0.5395436,-1.4952092,-0.45649004,2.941469,-2.2143865,-3.5700493
1094,2026-05-11 16:15:53.952914,-0.5395436,-1.4952092,-0.45649004,2.941469,-2.2143865,-3.5700493
1095,2026-05-11 16:15:53.955604,-0.5395436,-1.4952092,-0.45649004,2.941469,-2.2143865,-3.5700493
1096,2026-05-11 16:15:53.958298,-0.6462572,-1.4922212,-0.52942115,2.941469,-2.2143865,-3.5700493
1097,2026-05-11 16:15:53.960854,-0.6462572,-1.4922212,-0.52942115,2.941469,-2.2143865,-3.5700493
1098,2026-05-11 16:15:53.963438,-0.6462572,-1.4922212,-0.52942115,2.941469,-2.2143865,-3.5700493
1099,2026-05-11 16:15:53.966464,-0.6462572,-1.4922212,-0.52942115,2.941469,-2.2143865,-3.5700493
1100,2026-05-11 16:15:53.969079,-0.6462572,-1.4922212,-0.52942115,2.941469,-2.2143865,-3.5700493
1101,2026-05-11 16:15:53.971802,-0.6462572,-1.4922212,-0.52942115,2.941469,-2.2143865,-3.5700493
1102,2026-05-11 16:15:53.974390,-0.6462572,-1.4922212,-0.52942115,2.941469,-2.2143865,-3.5700493
1103,2026-05-11 16:15:53.977044,-0.6462572,-1.4922212,-0.52942115,2.941469,-2.2143865,-3.5700493
1104,2026-05-11 16:15:53.979600,-0.6462572,-1.4922212,-0.52942115,2.941469,-2.2143865,-3.5700493
1105,2026-05-11 16:15:53.982609,-0.6462572,-1.4922212,-0.52942115,2.941469,-2.2143865,-3.5700493
1106,2026-05-11 16:15:53.985372,-0.6462572,-1.4922212,-0.52942115,2.941469,-2.2143865,-3.5700493
1107,2026-05-11 16:15:53.987993,-0.6462572,-1.4922212,-0.52942115,2.941469,-2.2143865,-3.5700493
1108,2026-05-11 16:15:53.990674,-0.8764536,-1.4249002,-0.6007668,1.4856243,-1.5477798,-2.5993843
1109,2026-05-11 16:15:53.993250,-0.8764536,-1.4249002,-0.6007668,1.4856243,-1.5477798,-2.5993843
1110,2026-05-11 16:15:53.995985,-0.8764536,-1.4249002,-0.6007668,1.4856243,-1.5477798,-2.5993843
1111,2026-05-11 16:15:53.999165,-0.8764536,-1.4249002,-0.6007668,1.4856243,-1.5477798,-2.5993843
1112,2026-05-11 16:15:54.028006,-0.8764536,-1.4249002,-0.6007668,1.4856243,-1.5477798,-2.5993843
1113,2026-05-11 16:15:54.033930,-0.8764536,-1.4249002,-0.6007668,1.4856243,-1.5477798,-2.5993843
1114,2026-05-11 16:15:54.039523,-0.8764536,-1.4249002,-0.6007668,1.4856243,-1.5477798,-2.5993843
1115,2026-05-11 16:15:54.042294,-0.8764536,-1.4249002,-0.6007668,1.4856243,-1.5477798,-2.5993843
1116,2026-05-11 16:15:54.044923,-0.8764536,-1.4249002,-0.6007668,1.4856243,-1.5477798,-2.5993843
1117,2026-05-11 16:15:54.048012,-0.89072275,-1.3859955,-0.5330189,1.4856243,-1.5477798,-2.5993843
1118,2026-05-11 16:15:54.051179,-0.89072275,-1.3859955,-0.5330189,1.4856243,-1.5477798,-2.5993843
1119,2026-05-11 16:15:54.053852,-0.89072275,-1.3859955,-0.5330189,1.4856243,-1.5477798,-2.5993843
1120,2026-05-11 16:15:54.056757,-0.89072275,-1.3859955,-0.5330189,1.4856243,-1.5477798,-2.5993843
1121,2026-05-11 16:15:54.059451,-0.89072275,-1.3859955,-0.5330189,1.4856243,-1.5477798,-2.5993843
1122,2026-05-11 16:15:54.062188,-0.89072275,-1.3859955,-0.5330189,0.6597345,-1.0264063,-2.0172298
1123,2026-05-11 16:15:54.065047,-0.89072275,-1.3859955,-0.5330189,0.6597345,-1.0264063,-2.0172298
1124,2026-05-11 16:15:54.068141,-0.89072275,-1.3859955,-0.5330189,0.6597345,-1.0264063,-2.0172298
1125,2026-05-11 16:15:54.070966,-0.8690751,-1.3327607,-0.42276856,0.6597345,-1.0264063,-2.0172298
1126,2026-05-11 16:15:54.073724,-0.8690751,-1.3327607,-0.42276856,0.6597345,-1.0264063,-2.0172298
1127,2026-05-11 16:15:54.076507,-0.8690751,-1.3327607,-0.42276856,-0.19135354,-0.38072178,-1.3448198
1128,2026-05-11 16:15:54.079134,-0.8690751,-1.3327607,-0.42276856,-0.19135354,-0.38072178,-1.3448198
1129,2026-05-11 16:15:54.082270,-0.8690751,-1.3327607,-0.42276856,-0.19135354,-0.38072178,-1.3448198
1130,2026-05-11 16:15:54.085252,-0.8690751,-1.3327607,-0.42276856,-0.19135354,-0.38072178,-1.3448198
1131,2026-05-11 16:15:54.087924,-0.8690751,-1.3327607,-0.42276856,-0.19135354,-0.38072178,-1.3448198
1132,2026-05-11 16:15:54.090760,-0.8690751,-1.3327607,-0.42276856,-0.19135354,-0.38072178,-1.3448198
1133,2026-05-11 16:15:54.093388,-0.8690751,-1.3327607,-0.42276856,-0.19135354,-0.38072178,-1.3448198
1134,2026-05-11 16:15:54.096171,-0.8690751,-1.3327607,-0.42276856,-0.19135354,-0.38072178,-1.3448198
1135,2026-05-11 16:15:54.099329,-0.8690751,-1.3327607,-0.42276856,-0.19135354,-0.38072178,-1.3448198
1136,2026-05-11 16:15:54.102162,-0.7811431,-1.1991553,-0.27215004,-0.19135354,-0.38072178,-1.3448198
1137,2026-05-11 16:15:54.104872,-0.7811431,-1.1991553,-0.27215004,-0.19135354,-0.38072178,-1.3448198
1138,2026-05-11 16:15:54.107546,-0.7811431,-1.1991553,-0.27215004,-0.19135354,-0.38072178,-1.3448198
1139,2026-05-11 16:15:54.110159,-0.7811431,-1.1991553,-0.27215004,-0.19135354,-0.38072178,-1.3448198
1140,2026-05-11 16:15:54.112856,-0.7811431,-1.1991553,-0.27215004,-0.19135354,-0.38072178,-1.3448198
1141,2026-05-11 16:15:54.115792,-0.7811431,-1.1991553,-0.27215004,-0.19135354,-0.38072178,-1.3448198
1142,2026-05-11 16:15:54.118493,-0.7811431,-1.1991553,-0.27215004,-0.19135354,-0.38072178,-1.3448198
1143,2026-05-11 16:15:54.121200,-0.7811431,-1.1991553,-0.27215004,-0.19135354,-0.38072178,-1.3448198
1144,2026-05-11 16:15:54.124070,-0.7811431,-1.1991553,-0.27215004,-0.19135354,-0.38072178,-1.3448198
1145,2026-05-11 16:15:54.126727,-0.7811431,-1.1991553,-0.27215004,-0.19135354,-0.38072178,-1.3448198
1146,2026-05-11 16:15:54.129348,-0.7811431,-1.1991553,-0.27215004,-0.19135354,-0.38072178,-1.3448198
1147,2026-05-11 16:15:54.132326,-0.7811431,-1.1991553,-0.27215004,-0.19135354,-0.38072178,-1.3448198
1148,2026-05-11 16:15:54.135467,-0.7811431,-1.1991553,-0.27215004,-0.7687739,0.118202426,-0.73655075
1149,2026-05-11 16:15:54.138159,-0.6307075,-1.0534151,-0.16354613,-0.98914355,0.31230485,-0.43127087
1150,2026-05-11 16:15:54.140795,-0.6307075,-1.0534151,-0.16354613,-0.98914355,0.31230485,-0.43127087
1151,2026-05-11 16:15:54.143659,-0.6307075,-1.0534151,-0.16354613,-0.98914355,0.31230485,-0.43127087
1152,2026-05-11 16:15:54.146290,-0.6307075,-1.0534151,-0.16354613,-0.98914355,0.31230485,-0.43127087
1153,2026-05-11 16:15:54.149450,-0.6307075,-1.0534151,-0.16354613,-0.98914355,0.31230485,-0.43127087
1154,2026-05-11 16:15:54.152222,-0.6307075,-1.0534151,-0.16354613,-0.98914355,0.31230485,-0.43127087
1155,2026-05-11 16:15:54.154841,-0.6307075,-1.0534151,-0.16354613,-0.98914355,0.31230485,-0.43127087
1156,2026-05-11 16:15:54.157610,-0.6307075,-1.0534151,-0.16354613,-0.98914355,0.31230485,-0.43127087
1157,2026-05-11 16:15:54.160388,-0.6307075,-1.0534151,-0.16354613,-0.98914355,0.31230485,-0.43127087
1158,2026-05-11 16:15:54.163035,-0.6307075,-1.0534151,-0.16354613,-0.98914355,0.31230485,-0.43127087
1159,2026-05-11 16:15:54.165988,-0.6307075,-1.0534151,-0.16354613,-0.98914355,0.31230485,-0.43127087
1160,2026-05-11 16:15:54.168808,-0.39795005,-0.82462126,0.0015854583,-0.98914355,0.31230485,-0.43127087
1161,2026-05-11 16:15:54.171517,-0.39795005,-0.82462126,0.0015854583,-0.98914355,0.31230485,-0.43127087
1162,2026-05-11 16:15:54.174118,-0.39795005,-0.82462126,0.0015854583,-0.98914355,0.31230485,-0.43127087
1163,2026-05-11 16:15:54.176851,-0.39795005,-0.82462126,0.0015854583,-1.1371256,0.56169057,-0.04627304
1164,2026-05-11 16:15:54.179479,-0.39795005,-0.82462126,0.0015854583,-1.1371256,0.56169057,-0.04627304
1165,2026-05-11 16:15:54.182334,-0.39795005,-0.82462126,0.0015854583,-1.1371256,0.56169057,-0.04627304
1166,2026-05-11 16:15:54.185049,-0.39795005,-0.82462126,0.0015854583,-1.1371256,0.56169057,-0.04627304
1167,2026-05-11 16:15:54.187624,-0.39795005,-0.82462126,0.0015854583,-1.1371256,0.56169057,-0.04627304
1168,2026-05-11 16:15:54.190192,-0.39795005,-0.82462126,0.0015854583,-1.1371256,0.56169057,-0.04627304
1169,2026-05-11 16:15:54.192769,-0.39795005,-0.82462126,0.0015854583,-1.1371256,0.56169057,-0.04627304
1170,2026-05-11 16:15:54.195326,-0.39795005,-0.82462126,0.0015854583,-1.1371256,0.56169057,-0.04627304
1171,2026-05-11 16:15:54.197897,-0.39795005,-0.82462126,0.0015854583,-1.1371256,0.56169057,-0.04627304
1172,2026-05-11 16:15:54.201211,-0.39795005,-0.82462126,0.0015854583,-1.1371256,0.56169057,-0.04627304
1173,2026-05-11 16:15:54.203906,-0.39795005,-0.82462126,0.0015854583,-1.1371256,0.56169057,-0.04627304
1174,2026-05-11 16:15:54.206697,-0.31337196,-0.6715026,0.1006766,-0.98731095,0.61269784,0.13836098
1175,2026-05-11 16:15:54.209296,-0.31337196,-0.6715026,0.1006766,-0.7301367,0.5403103,0.2848159
1176,2026-05-11 16:15:54.212208,-0.20970736,-0.50624907,0.20671937,-0.7301367,0.5403103,0.2848159
1177,2026-05-11 16:15:54.214947,-0.20970736,-0.50624907,0.20671937,-0.7301367,0.5403103,0.2848159
1178,2026-05-11 16:15:54.218043,-0.20970736,-0.50624907,0.20671937,-0.7301367,0.5403103,0.2848159
1179,2026-05-11 16:15:54.220699,-0.20970736,-0.50624907,0.20671937,-0.7301367,0.5403103,0.2848159
1180,2026-05-11 16:15:54.223441,-0.20970736,-0.50624907,0.20671937,-0.7301367,0.5403103,0.2848159
1181,2026-05-11 16:15:54.226128,-0.20970736,-0.50624907,0.20671937,-0.7301367,0.5403103,0.2848159
1182,2026-05-11 16:15:54.228983,-0.20970736,-0.50624907,0.20671937,-0.7301367,0.5403103,0.2848159
1183,2026-05-11 16:15:54.231763,-0.20970736,-0.50624907,0.20671937,-0.7301367,0.5403103,0.2848159
1184,2026-05-11 16:15:54.234908,-0.09488358,-0.36685067,0.30489585,-0.7301367,0.5403103,0.2848159
1185,2026-05-11 16:15:54.237590,-0.09488358,-0.36685067,0.30489585,-0.7301367,0.5403103,0.2848159
1186,2026-05-11 16:15:54.240204,-0.09488358,-0.36685067,0.30489585,-0.7301367,0.5403103,0.2848159
1187,2026-05-11 16:15:54.242864,-0.09488358,-0.36685067,0.30489585,-0.7301367,0.5403103,0.2848159
1188,2026-05-11 16:15:54.245461,-0.09488358,-0.36685067,0.30489585,-0.7301367,0.5403103,0.2848159
1189,2026-05-11 16:15:54.248268,-0.09488358,-0.36685067,0.30489585,-0.7301367,0.5403103,0.2848159
1190,2026-05-11 16:15:54.251543,-0.09488358,-0.36685067,0.30489585,-0.17073683,0.37965274,0.4457789
1191,2026-05-11 16:15:54.254199,-0.09488358,-0.36685067,0.30489585,-0.17073683,0.37965274,0.4457789
1192,2026-05-11 16:15:54.257060,-0.09488358,-0.36685067,0.30489585,0.052687127,0.33322698,0.49968776
1193,2026-05-11 16:15:54.259728,-0.09488358,-0.36685067,0.30489585,0.052687127,0.33322698,0.49968776
1194,2026-05-11 16:15:54.262502,-0.09488358,-0.36685067,0.30489585,0.052687127,0.33322698,0.49968776
1195,2026-05-11 16:15:54.265479,-0.0837244,-0.32800692,0.33623913,0.052687127,0.33322698,0.49968776
1196,2026-05-11 16:15:54.268470,-0.0837244,-0.32800692,0.33623913,0.052687127,0.33322698,0.49968776
1197,2026-05-11 16:15:54.271248,-0.0837244,-0.32800692,0.33623913,0.052687127,0.33322698,0.49968776
1198,2026-05-11 16:15:54.273961,-0.0837244,-0.32800692,0.33623913,0.052687127,0.33322698,0.49968776
1199,2026-05-11 16:15:54.276573,-0.0837244,-0.32800692,0.33623913,0.052687127,0.33322698,0.49968776
1200,2026-05-11 16:15:54.279406,-0.0837244,-0.32800692,0.33623913,0.052687127,0.33322698,0.49968776
1201,2026-05-11 16:15:54.282582,-0.0837244,-0.32800692,0.33623913,0.052687127,0.33322698,0.49968776
1202,2026-05-11 16:15:54.285378,-0.0837244,-0.32800692,0.33623913,0.052687127,0.33322698,0.49968776
1203,2026-05-11 16:15:54.288026,-0.0837244,-0.32800692,0.33623913,0.052687127,0.33322698,0.49968776
1204,2026-05-11 16:15:54.290939,-0.0837244,-0.32800692,0.33623913,0.052687127,0.33322698,0.49968776
1205,2026-05-11 16:15:54.293640,-0.0837244,-0.32800692,0.33623913,0.052687127,0.33322698,0.49968776
1206,2026-05-11 16:15:54.296429,-0.0837244,-0.32800692,0.33623913,0.052687127,0.33322698,0.49968776
1207,2026-05-11 16:15:54.299559,-0.0837244,-0.32800692,0.33623913,0.052687127,0.33322698,0.49968776
1208,2026-05-11 16:15:54.302311,-0.0837244,-0.32800692,0.33623913,0.052687127,0.33322698,0.49968776
1209,2026-05-11 16:15:54.304904,-0.0837244,-0.32800692,0.33623913,0.052687127,0.33322698,0.49968776
1210,2026-05-11 16:15:54.307746,-0.0837244,-0.32800692,0.33623913,0.052687127,0.33322698,0.49968776
1211,2026-05-11 16:15:54.310445,-0.06933331,-0.22556195,0.40764573,0.99021256,0.22571471,0.8045095
1212,2026-05-11 16:15:54.313050,-0.06933331,-0.22556195,0.40764573,0.99021256,0.22571471,0.8045095
1213,2026-05-11 16:15:54.316107,-0.06933331,-0.22556195,0.40764573,0.99021256,0.22571471,0.8045095
1214,2026-05-11 16:15:54.318844,-0.06933331,-0.22556195,0.40764573,1.5972599,0.14049901,1.0795516
1215,2026-05-11 16:15:54.321417,-0.06933331,-0.22556195,0.40764573,1.5972599,0.14049901,1.0795516
1216,2026-05-11 16:15:54.324342,-0.06933331,-0.22556195,0.40764573,1.5972599,0.14049901,1.0795516
1217,2026-05-11 16:15:54.326979,-0.06933331,-0.22556195,0.40764573,1.5972599,0.14049901,1.0795516
1218,2026-05-11 16:15:54.329811,-0.06933331,-0.22556195,0.40764573,1.5972599,0.14049901,1.0795516
1219,2026-05-11 16:15:54.333179,-0.08878566,-0.15933856,0.3731925,1.5972599,0.14049901,1.0795516
1220,2026-05-11 16:15:54.336006,-0.08878566,-0.15933856,0.3731925,1.5972599,0.14049901,1.0795516
1221,2026-05-11 16:15:54.338807,-0.08878566,-0.15933856,0.3731925,1.5972599,0.14049901,1.0795516
1222,2026-05-11 16:15:54.341448,-0.08878566,-0.15933856,0.3731925,1.5972599,0.14049901,1.0795516
1223,2026-05-11 16:15:54.344046,-0.08878566,-0.15933856,0.3731925,1.5972599,0.14049901,1.0795516
1224,2026-05-11 16:15:54.346788,-0.08878566,-0.15933856,0.3731925,1.5972599,0.14049901,1.0795516
1225,2026-05-11 16:15:54.349682,-0.08878566,-0.15933856,0.3731925,1.5972599,0.14049901,1.0795516
1226,2026-05-11 16:15:54.352602,-0.08878566,-0.15933856,0.3731925,1.5972599,0.14049901,1.0795516
1227,2026-05-11 16:15:54.355257,-0.08878566,-0.15933856,0.3731925,1.5972599,0.14049901,1.0795516
1228,2026-05-11 16:15:54.357939,-0.08878566,-0.15933856,0.3731925,1.5972599,0.14049901,1.0795516
1229,2026-05-11 16:15:54.360695,-0.08878566,-0.15933856,0.3731925,1.5972599,0.14049901,1.0795516
1230,2026-05-11 16:15:54.363325,-0.08878566,-0.15933856,0.3731925,1.5972599,0.14049901,1.0795516
1231,2026-05-11 16:15:54.366266,-0.09616415,-0.08268775,0.16153382,2.2174408,0.04337143,1.5792394
1232,2026-05-11 16:15:54.369667,-0.09616415,-0.08268775,0.16153382,2.2174408,0.04337143,1.5792394
1233,2026-05-11 16:15:54.372417,-0.09616415,-0.08268775,0.16153382,2.2174408,0.04337143,1.5792394
1234,2026-05-11 16:15:54.375081,-0.09616415,-0.08268775,0.16153382,2.2174408,0.04337143,1.5792394
1235,2026-05-11 16:15:54.377737,-0.09616415,-0.08268775,0.16153382,2.2174408,0.04337143,1.5792394
1236,2026-05-11 16:15:54.380590,0.010793312,-0.077382565,-0.30782285,2.2740986,0.23854288,2.2747095
1237,2026-05-11 16:15:54.383628,0.010793312,-0.077382565,-0.30782285,2.2740986,0.23854288,2.2747095
1238,2026-05-11 16:15:54.386833,0.010793312,-0.077382565,-0.30782285,2.2740986,0.23854288,2.2747095
1239,2026-05-11 16:15:54.389631,0.010793312,-0.077382565,-0.30782285,2.2740986,0.23854288,2.2747095
1240,2026-05-11 16:15:54.392214,0.010793312,-0.077382565,-0.30782285,2.2740986,0.23854288,2.2747095
1241,2026-05-11 16:15:54.394795,0.010793312,-0.077382565,-0.30782285,2.2740986,0.23854288,2.2747095
1242,2026-05-11 16:15:54.397386,0.010793312,-0.077382565,-0.30782285,2.2740986,0.23854288,2.2747095
1243,2026-05-11 16:15:54.400303,0.010793312,-0.077382565,-0.30782285,2.2740986,0.23854288,2.2747095
1244,2026-05-11 16:15:54.403024,0.010793312,-0.077382565,-0.30782285,2.2740986,0.23854288,2.2747095
1245,2026-05-11 16:15:54.405596,0.010793312,-0.077382565,-0.30782285,2.2740986,0.23854288,2.2747095
1246,2026-05-11 16:15:54.408233,0.06683317,-0.096347086,-0.474174,2.0636556,0.4175264,2.5297456
1247,2026-05-11 16:15:54.411054,0.06683317,-0.096347086,-0.474174,2.0636556,0.4175264,2.5297456
1248,2026-05-11 16:15:54.413669,0.06683317,-0.096347086,-0.474174,2.0636556,0.4175264,2.5297456
1249,2026-05-11 16:15:54.417022,0.06683317,-0.096347086,-0.474174,2.0636556,0.4175264,2.5297456
1250,2026-05-11 16:15:54.419844,0.06683317,-0.096347086,-0.474174,2.0636556,0.4175264,2.5297456
1251,2026-05-11 16:15:54.422452,0.06683317,-0.096347086,-0.474174,2.0636556,0.4175264,2.5297456
