id,timestamp,acc_x,acc_y,acc_z,gyro_x,gyro_y,gyro_z
1,2026-05-11 16:17:10.681733,2.6537523,1.4579508,2.0676208,-1.1908818,2.9460504,-4.148233
2,2026-05-11 16:17:10.692026,2.6537523,1.4579508,2.0676208,-1.1908818,2.9460504,-4.148233
3,2026-05-11 16:17:10.695156,2.6537523,1.4579508,2.0676208,-1.1908818,2.9460504,-4.148233
4,2026-05-11 16:17:10.697935,2.6537523,1.4579508,2.0676208,-1.1908818,2.9460504,-4.148233
5,2026-05-11 16:17:10.700744,2.6537523,1.4579508,2.0676208,-1.1908818,2.9460504,-4.148233
6,2026-05-11 16:17:10.703451,2.6537523,1.4579508,2.0676208,-1.1908818,2.9460504,-4.148233
7,2026-05-11 16:17:10.706329,2.6537523,1.4579508,2.0676208,-1.1908818,2.9460504,-4.148233
8,2026-05-11 16:17:10.709099,2.807237,1.2457434,2.2171416,-0.72219545,3.008206,-4.363563
9,2026-05-11 16:17:10.711701,2.807237,1.2457434,2.2171416,-0.72219545,3.008206,-4.363563
10,2026-05-11 16:17:10.714256,2.807237,1.2457434,2.2171416,-0.72219545,3.008206,-4.363563
11,2026-05-11 16:17:10.717688,2.807237,1.2457434,2.2171416,-0.72219545,3.008206,-4.363563
12,2026-05-11 16:17:10.720441,2.807237,1.2457434,2.2171416,-0.72219545,3.008206,-4.363563
13,2026-05-11 16:17:10.723228,2.807237,1.2457434,2.2171416,-0.72219545,3.008206,-4.363563
14,2026-05-11 16:17:10.725865,2.807237,1.2457434,2.2171416,-0.72219545,3.008206,-4.363563
15,2026-05-11 16:17:10.728743,2.807237,1.2457434,2.2171416,-0.72219545,3.008206,-4.363563
16,2026-05-11 16:17:10.731621,2.807237,1.2457434,2.2171416,-0.72219545,3.008206,-4.363563
17,2026-05-11 16:17:10.734692,2.807237,1.2457434,2.2171416,-0.72219545,3.008206,-4.363563
18,2026-05-11 16:17:10.737278,2.807237,1.2457434,2.2171416,-0.72219545,3.008206,-4.363563
19,2026-05-11 16:17:10.740179,2.807237,1.2457434,2.2171416,-0.72219545,3.008206,-4.363563
20,2026-05-11 16:17:10.742958,2.807237,1.2457434,2.2171416,-0.72219545,3.008206,-4.363563
21,2026-05-11 16:17:10.745586,2.807237,1.2457434,2.2171416,-0.72219545,3.008206,-4.363563
22,2026-05-11 16:17:10.748631,2.807237,1.2457434,2.2171416,-0.72219545,3.008206,-4.363563
23,2026-05-11 16:17:10.751563,2.807237,1.2457434,2.2171416,-0.72219545,3.008206,-4.363563
24,2026-05-11 16:17:10.754131,2.807237,1.2457434,2.2171416,-0.72219545,3.008206,-4.363563
25,2026-05-11 16:17:10.756834,2.807237,1.2457434,2.2171416,-0.72219545,3.008206,-4.363563
26,2026-05-11 16:17:10.759369,2.807237,1.2457434,2.2171416,-0.72219545,3.008206,-4.363563
27,2026-05-11 16:17:10.762213,2.807237,1.2457434,2.2171416,-0.72219545,3.008206,-4.363563
28,2026-05-11 16:17:10.764955,2.807237,1.2457434,2.2171416,-0.72219545,3.008206,-4.363563
29,2026-05-11 16:17:10.768158,2.807237,1.2457434,2.2171416,-0.72219545,3.008206,-4.363563
30,2026-05-11 16:17:10.770866,2.807237,1.2457434,2.2171416,-0.72219545,3.008206,-4.363563
31,2026-05-11 16:17:10.773416,2.807237,1.2457434,2.2171416,-0.72219545,3.008206,-4.363563
32,2026-05-11 16:17:10.776173,2.807237,1.2457434,2.2171416,-0.72219545,3.008206,-4.363563
33,2026-05-11 16:17:10.778767,2.807237,1.2457434,2.2171416,-0.72219545,3.008206,-4.363563
34,2026-05-11 16:17:10.781811,2.807237,1.2457434,2.2171416,-0.72219545,3.008206,-4.363563
35,2026-05-11 16:17:10.784551,2.807237,1.2457434,2.2171416,-0.72219545,3.008206,-4.363563
36,2026-05-11 16:17:10.787262,2.807237,1.2457434,2.2171416,-0.72219545,3.008206,-4.363563
37,2026-05-11 16:17:10.789836,2.807237,1.2457434,2.2171416,-0.72219545,3.008206,-4.363563
38,2026-05-11 16:17:10.792528,2.807237,1.2457434,2.2171416,-0.72219545,3.008206,-4.363563
39,2026-05-11 16:17:10.795085,2.807237,1.2457434,2.2171416,-0.72219545,3.008206,-4.363563
40,2026-05-11 16:17:10.797867,2.807237,1.2457434,2.2171416,-0.72219545,3.008206,-4.363563
41,2026-05-11 16:17:10.800794,2.807237,1.2457434,2.2171416,-0.72219545,3.008206,-4.363563
42,2026-05-11 16:17:10.803692,2.807237,1.2457434,2.2171416,-0.72219545,3.008206,-4.363563
43,2026-05-11 16:17:10.806271,2.807237,1.2457434,2.2171416,-0.72219545,3.008206,-4.363563
44,2026-05-11 16:17:10.808859,2.807237,1.2457434,2.2171416,-0.72219545,3.008206,-4.363563
45,2026-05-11 16:17:10.811547,2.807237,1.2457434,2.2171416,-0.72219545,3.008206,-4.363563
46,2026-05-11 16:17:10.814249,2.807237,1.2457434,2.2171416,-0.72219545,3.008206,-4.363563
47,2026-05-11 16:17:10.817449,2.807237,1.2457434,2.2171416,-0.72219545,3.008206,-4.363563
48,2026-05-11 16:17:10.820216,2.807237,1.2457434,2.2171416,-0.72219545,3.008206,-4.363563
49,2026-05-11 16:17:10.822955,2.807237,1.2457434,2.2171416,-0.72219545,3.008206,-4.363563
50,2026-05-11 16:17:10.825546,2.807237,1.2457434,2.2171416,-0.72219545,3.008206,-4.363563
51,2026-05-11 16:17:10.828380,2.807237,1.2457434,2.2171416,-0.72219545,3.008206,-4.363563
52,2026-05-11 16:17:10.831167,2.807237,1.2457434,2.2171416,-0.72219545,3.008206,-4.363563
53,2026-05-11 16:17:10.834271,2.807237,1.2457434,2.2171416,-0.72219545,3.008206,-4.363563
54,2026-05-11 16:17:10.836999,2.807237,1.2457434,2.2171416,-0.72219545,3.008206,-4.363563
55,2026-05-11 16:17:10.839631,2.807237,1.2457434,2.2171416,-0.72219545,3.008206,-4.363563
56,2026-05-11 16:17:10.842257,2.807237,1.2457434,2.2171416,-0.72219545,3.008206,-4.363563
57,2026-05-11 16:17:10.844903,2.807237,1.2457434,2.2171416,-0.72219545,3.008206,-4.363563
58,2026-05-11 16:17:10.847417,2.807237,1.2457434,2.2171416,-0.72219545,3.008206,-4.363563
59,2026-05-11 16:17:10.850436,2.807237,1.2457434,2.2171416,-0.72219545,3.008206,-4.363563
60,2026-05-11 16:17:10.853085,2.807237,1.2457434,2.2171416,-0.72219545,3.008206,-4.363563
61,2026-05-11 16:17:10.855759,2.807237,1.2457434,2.2171416,-0.72219545,3.008206,-4.363563
62,2026-05-11 16:17:10.858386,2.807237,1.2457434,2.2171416,-0.72219545,3.008206,-4.363563
63,2026-05-11 16:17:10.860934,2.807237,1.2457434,2.2171416,-0.72219545,3.008206,-4.363563
64,2026-05-11 16:17:10.863513,2.807237,1.2457434,2.2171416,-0.72219545,3.008206,-4.363563
65,2026-05-11 16:17:10.866450,2.807237,1.2457434,2.2171416,-0.72219545,3.008206,-4.363563
66,2026-05-11 16:17:10.869188,2.807237,1.2457434,2.2171416,-0.72219545,3.008206,-4.363563
67,2026-05-11 16:17:10.871734,2.807237,1.2457434,2.2171416,-0.72219545,3.008206,-4.363563
68,2026-05-11 16:17:10.874216,2.807237,1.2457434,2.2171416,-0.72219545,3.008206,-4.363563
69,2026-05-11 16:17:10.876715,2.807237,1.2457434,2.2171416,-0.72219545,3.008206,-4.363563
70,2026-05-11 16:17:10.879303,2.807237,1.2457434,2.2171416,-0.72219545,3.008206,-4.363563
71,2026-05-11 16:17:10.882332,2.807237,1.2457434,2.2171416,-0.72219545,3.008206,-4.363563
72,2026-05-11 16:17:10.885126,2.807237,1.2457434,2.2171416,-0.72219545,3.008206,-4.363563
73,2026-05-11 16:17:10.887685,2.807237,1.2457434,2.2171416,-0.72219545,3.008206,-4.363563
74,2026-05-11 16:17:10.890321,2.807237,1.2457434,2.2171416,-0.72219545,3.008206,-4.363563
75,2026-05-11 16:17:10.892835,2.807237,1.2457434,2.2171416,-0.72219545,3.008206,-4.363563
76,2026-05-11 16:17:10.895322,2.807237,1.2457434,2.2171416,-0.72219545,3.008206,-4.363563
77,2026-05-11 16:17:10.898365,2.807237,1.2457434,2.2171416,-0.72219545,3.008206,-4.363563
78,2026-05-11 16:17:10.901070,2.807237,1.2457434,2.2171416,-0.72219545,3.008206,-4.363563
79,2026-05-11 16:17:10.903638,2.807237,1.2457434,2.2171416,-0.72219545,3.008206,-4.363563
80,2026-05-11 16:17:10.906401,2.807237,1.2457434,2.2171416,-0.72219545,3.008206,-4.363563
81,2026-05-11 16:17:10.908999,2.807237,1.2457434,2.2171416,-0.72219545,3.008206,-4.363563
82,2026-05-11 16:17:10.911579,2.807237,1.2457434,2.2171416,-0.72219545,3.008206,-4.363563
83,2026-05-11 16:17:10.914292,2.807237,1.2457434,2.2171416,-0.72219545,3.008206,-4.363563
84,2026-05-11 16:17:10.917350,2.807237,1.2457434,2.2171416,-0.72219545,3.008206,-4.363563
85,2026-05-11 16:17:10.920188,2.807237,1.2457434,2.2171416,-0.4027129,3.414584,-4.525137
86,2026-05-11 16:17:10.922815,2.807237,1.2457434,2.2171416,-0.4027129,3.414584,-4.525137
87,2026-05-11 16:17:10.925395,2.807237,1.2457434,2.2171416,-0.4027129,3.414584,-4.525137
88,2026-05-11 16:17:10.928134,2.807237,1.2457434,2.2171416,-0.4027129,3.414584,-4.525137
89,2026-05-11 16:17:10.930715,2.807237,1.2457434,2.2171416,-0.4027129,3.414584,-4.525137
90,2026-05-11 16:17:10.933769,2.807237,1.2457434,2.2171416,-0.4027129,3.414584,-4.525137
91,2026-05-11 16:17:10.936541,2.807237,1.2457434,2.2171416,-0.4027129,3.414584,-4.525137
92,2026-05-11 16:17:10.939121,2.807237,1.2457434,2.2171416,-0.4027129,3.414584,-4.525137
93,2026-05-11 16:17:10.941683,2.807237,1.2457434,2.2171416,-0.4027129,3.414584,-4.525137
94,2026-05-11 16:17:10.944396,2.807237,1.2457434,2.2171416,-0.4027129,3.414584,-4.525137
95,2026-05-11 16:17:10.946989,2.807237,1.2457434,2.2171416,-0.4027129,3.414584,-4.525137
96,2026-05-11 16:17:10.949995,2.807237,1.2457434,2.2171416,-0.4027129,3.414584,-4.525137
97,2026-05-11 16:17:10.952647,2.807237,1.2457434,2.2171416,-0.4027129,3.414584,-4.525137
98,2026-05-11 16:17:10.955349,2.807237,1.2457434,2.2171416,-0.4027129,3.414584,-4.525137
99,2026-05-11 16:17:10.957970,2.807237,1.2457434,2.2171416,-0.4027129,3.414584,-4.525137
100,2026-05-11 16:17:10.960692,2.807237,1.2457434,2.2171416,-0.4027129,3.414584,-4.525137
101,2026-05-11 16:17:10.963272,2.807237,1.2457434,2.2171416,-0.4027129,3.414584,-4.525137
102,2026-05-11 16:17:10.966519,2.807237,1.2457434,2.2171416,-0.4027129,3.414584,-4.525137
103,2026-05-11 16:17:10.969237,2.807237,1.2457434,2.2171416,-0.4027129,3.414584,-4.525137
104,2026-05-11 16:17:10.971988,2.807237,1.2457434,2.2171416,-0.4027129,3.414584,-4.525137
105,2026-05-11 16:17:10.974610,2.807237,1.2457434,2.2171416,-0.4027129,3.414584,-4.525137
106,2026-05-11 16:17:10.977142,2.807237,1.2457434,2.2171416,-0.4027129,3.414584,-4.525137
107,2026-05-11 16:17:10.979895,2.807237,1.2457434,2.2171416,-0.4027129,3.414584,-4.525137
108,2026-05-11 16:17:10.982974,2.807237,1.2457434,2.2171416,-0.4027129,3.414584,-4.525137
109,2026-05-11 16:17:10.985692,2.807237,1.2457434,2.2171416,-0.4027129,3.414584,-4.525137
110,2026-05-11 16:17:10.988240,2.807237,1.2457434,2.2171416,-0.4027129,3.414584,-4.525137
111,2026-05-11 16:17:10.990786,2.807237,1.2457434,2.2171416,-0.4027129,3.414584,-4.525137
112,2026-05-11 16:17:10.993520,2.807237,1.2457434,2.2171416,-0.4027129,3.414584,-4.525137
113,2026-05-11 16:17:10.996096,2.807237,1.2457434,2.2171416,-0.4027129,3.414584,-4.525137
114,2026-05-11 16:17:10.999156,2.807237,1.2457434,2.2171416,-0.4027129,3.414584,-4.525137
115,2026-05-11 16:17:11.001965,2.807237,1.2457434,2.2171416,-0.4027129,3.414584,-4.525137
116,2026-05-11 16:17:11.004736,2.807237,1.2457434,2.2171416,-0.4027129,3.414584,-4.525137
117,2026-05-11 16:17:11.007439,2.807237,1.2457434,2.2171416,-0.4027129,3.414584,-4.525137
118,2026-05-11 16:17:11.010182,2.807237,1.2457434,2.2171416,-0.4027129,3.414584,-4.525137
119,2026-05-11 16:17:11.012749,2.807237,1.2457434,2.2171416,-0.4027129,3.414584,-4.525137
120,2026-05-11 16:17:11.015867,2.807237,1.2457434,2.2171416,-0.4027129,3.414584,-4.525137
121,2026-05-11 16:17:11.018621,2.807237,1.2457434,2.2171416,-0.4027129,3.414584,-4.525137
122,2026-05-11 16:17:11.021249,2.807237,1.2457434,2.2171416,-0.4027129,3.414584,-4.525137
123,2026-05-11 16:17:11.023847,2.8141274,1.0471343,2.4658756,-0.4027129,3.414584,-4.525137
124,2026-05-11 16:17:11.026567,2.8141274,1.0471343,2.4658756,-0.4027129,3.414584,-4.525137
125,2026-05-11 16:17:11.029102,2.8141274,1.0471343,2.4658756,-0.4027129,3.414584,-4.525137
126,2026-05-11 16:17:11.032264,2.8141274,1.0471343,2.4658756,-0.4027129,3.414584,-4.525137
127,2026-05-11 16:17:11.035089,2.8141274,1.0471343,2.4658756,-0.4027129,3.414584,-4.525137
128,2026-05-11 16:17:11.037741,2.8141274,1.0471343,2.4658756,-0.4027129,3.414584,-4.525137
129,2026-05-11 16:17:11.040332,2.8141274,1.0471343,2.4658756,-0.4027129,3.414584,-4.525137
130,2026-05-11 16:17:11.042932,2.8141274,1.0471343,2.4658756,-0.4027129,3.414584,-4.525137
131,2026-05-11 16:17:11.045452,2.8141274,1.0471343,2.4658756,-0.4027129,3.414584,-4.525137
132,2026-05-11 16:17:11.048018,2.8141274,1.0471343,2.4658756,-0.4027129,3.414584,-4.525137
133,2026-05-11 16:17:11.051968,2.8141274,1.0471343,2.4658756,-0.4027129,3.414584,-4.525137
134,2026-05-11 16:17:11.054848,2.8141274,1.0471343,2.4658756,-0.4027129,3.414584,-4.525137
135,2026-05-11 16:17:11.057480,2.8141274,1.0471343,2.4658756,-0.4027129,3.414584,-4.525137
136,2026-05-11 16:17:11.060099,2.8141274,1.0471343,2.4658756,-0.016340645,3.8530326,-4.5937066
137,2026-05-11 16:17:11.062689,2.8141274,1.0471343,2.4658756,-0.016340645,3.8530326,-4.5937066
138,2026-05-11 16:17:11.065527,2.8141274,1.0471343,2.4658756,-0.016340645,3.8530326,-4.5937066
139,2026-05-11 16:17:11.068929,2.8141274,1.0471343,2.4658756,-0.016340645,3.8530326,-4.5937066
140,2026-05-11 16:17:11.071708,2.8141274,1.0471343,2.4658756,-0.016340645,3.8530326,-4.5937066
141,2026-05-11 16:17:11.074294,2.8141274,1.0471343,2.4658756,-0.016340645,3.8530326,-4.5937066
142,2026-05-11 16:17:11.076827,2.8141274,1.0471343,2.4658756,-0.016340645,3.8530326,-4.5937066
143,2026-05-11 16:17:11.079521,2.8141274,1.0471343,2.4658756,-0.016340645,3.8530326,-4.5937066
144,2026-05-11 16:17:11.082255,2.8751678,0.7954732,2.6991208,-0.016340645,3.8530326,-4.5937066
145,2026-05-11 16:17:11.085795,2.8751678,0.7954732,2.6991208,-0.016340645,3.8530326,-4.5937066
146,2026-05-11 16:17:11.088555,2.8751678,0.7954732,2.6991208,-0.016340645,3.8530326,-4.5937066
147,2026-05-11 16:17:11.091165,2.8751678,0.7954732,2.6991208,-0.016340645,3.8530326,-4.5937066
148,2026-05-11 16:17:11.093735,2.8751678,0.7954732,2.6991208,-0.016340645,3.8530326,-4.5937066
149,2026-05-11 16:17:11.096439,2.8751678,0.7954732,2.6991208,-0.016340645,3.8530326,-4.5937066
150,2026-05-11 16:17:11.099547,2.8751678,0.7954732,2.6991208,-0.016340645,3.8530326,-4.5937066
151,2026-05-11 16:17:11.102383,2.8751678,0.7954732,2.6991208,-0.016340645,3.8530326,-4.5937066
152,2026-05-11 16:17:11.104990,2.8751678,0.7954732,2.6991208,-0.016340645,3.8530326,-4.5937066
153,2026-05-11 16:17:11.107791,2.8751678,0.7954732,2.6991208,-0.016340645,3.8530326,-4.5937066
154,2026-05-11 16:17:11.110402,2.8751678,0.7954732,2.6991208,-0.016340645,3.8530326,-4.5937066
155,2026-05-11 16:17:11.112994,2.8751678,0.7954732,2.6991208,-0.016340645,3.8530326,-4.5937066
156,2026-05-11 16:17:11.115897,2.8751678,0.7954732,2.6991208,-0.016340645,3.8530326,-4.5937066
157,2026-05-11 16:17:11.118593,2.8751678,0.7954732,2.6991208,-0.016340645,3.8530326,-4.5937066
158,2026-05-11 16:17:11.121297,2.8751678,0.7954732,2.6991208,-0.016340645,3.8530326,-4.5937066
159,2026-05-11 16:17:11.123868,2.8751678,0.7954732,2.6991208,-0.016340645,3.8530326,-4.5937066
160,2026-05-11 16:17:11.126495,2.8751678,0.7954732,2.6991208,-0.016340645,3.8530326,-4.5937066
161,2026-05-11 16:17:11.129251,2.8751678,0.7954732,2.6991208,-0.016340645,3.8530326,-4.5937066
162,2026-05-11 16:17:11.132372,2.8751678,0.7954732,2.6991208,-0.016340645,3.8530326,-4.5937066
163,2026-05-11 16:17:11.135340,2.8751678,0.7954732,2.6991208,-0.016340645,3.8530326,-4.5937066
164,2026-05-11 16:17:11.138066,2.8751678,0.7954732,2.6991208,-0.016340645,3.8530326,-4.5937066
165,2026-05-11 16:17:11.140656,2.8751678,0.7954732,2.6991208,-0.016340645,3.8530326,-4.5937066
166,2026-05-11 16:17:11.143269,2.8751678,0.7954732,2.6991208,-0.016340645,3.8530326,-4.5937066
167,2026-05-11 16:17:11.145857,2.8751678,0.7954732,2.6991208,-0.016340645,3.8530326,-4.5937066
168,2026-05-11 16:17:11.149003,2.8751678,0.7954732,2.6991208,-0.016340645,3.8530326,-4.5937066
169,2026-05-11 16:17:11.151981,2.8751678,0.7954732,2.6991208,-0.016340645,3.8530326,-4.5937066
170,2026-05-11 16:17:11.154629,2.8751678,0.7954732,2.6991208,-0.016340645,3.8530326,-4.5937066
171,2026-05-11 16:17:11.157214,2.8751678,0.7954732,2.6991208,-0.016340645,3.8530326,-4.5937066
172,2026-05-11 16:17:11.159998,2.8751678,0.7954732,2.6991208,-0.016340645,3.8530326,-4.5937066
173,2026-05-11 16:17:11.162721,2.8751678,0.7954732,2.6991208,-0.016340645,3.8530326,-4.5937066
174,2026-05-11 16:17:11.165777,2.8751678,0.7954732,2.6991208,-0.016340645,3.8530326,-4.5937066
175,2026-05-11 16:17:11.168497,2.8751678,0.7954732,2.6991208,-0.016340645,3.8530326,-4.5937066
176,2026-05-11 16:17:11.171256,2.8751678,0.7954732,2.6991208,-0.016340645,3.8530326,-4.5937066
177,2026-05-11 16:17:11.173837,2.8751678,0.7954732,2.6991208,-0.016340645,3.8530326,-4.5937066
178,2026-05-11 16:17:11.176536,2.8751678,0.7954732,2.6991208,-0.016340645,3.8530326,-4.5937066
179,2026-05-11 16:17:11.179095,2.8751678,0.7954732,2.6991208,-0.016340645,3.8530326,-4.5937066
180,2026-05-11 16:17:11.182107,2.8751678,0.7954732,2.6991208,-0.016340645,3.8530326,-4.5937066
181,2026-05-11 16:17:11.184941,2.8751678,0.7954732,2.6991208,-0.016340645,3.8530326,-4.5937066
182,2026-05-11 16:17:11.187521,2.8751678,0.7954732,2.6991208,-0.016340645,3.8530326,-4.5937066
183,2026-05-11 16:17:11.190113,2.8751678,0.7954732,2.6991208,-0.016340645,3.8530326,-4.5937066
184,2026-05-11 16:17:11.192703,2.8751678,0.7954732,2.6991208,-0.016340645,3.8530326,-4.5937066
185,2026-05-11 16:17:11.195238,2.8751678,0.7954732,2.6991208,-0.016340645,3.8530326,-4.5937066
186,2026-05-11 16:17:11.198204,2.8751678,0.7954732,2.6991208,-0.016340645,3.8530326,-4.5937066
187,2026-05-11 16:17:11.200936,2.8751678,0.7954732,2.6991208,-0.016340645,3.8530326,-4.5937066
188,2026-05-11 16:17:11.203523,2.8751678,0.7954732,2.6991208,-0.016340645,3.8530326,-4.5937066
189,2026-05-11 16:17:11.206301,2.8751678,0.7954732,2.6991208,-0.016340645,3.8530326,-4.5937066
190,2026-05-11 16:17:11.208914,2.8751678,0.7954732,2.6991208,-0.016340645,3.8530326,-4.5937066
191,2026-05-11 16:17:11.211605,2.8751678,0.7954732,2.6991208,-0.016340645,3.8530326,-4.5937066
192,2026-05-11 16:17:11.214183,2.8751678,0.7954732,2.6991208,-0.016340645,3.8530326,-4.5937066
193,2026-05-11 16:17:11.217183,2.8751678,0.7954732,2.6991208,-0.016340645,3.8530326,-4.5937066
194,2026-05-11 16:17:11.219814,2.8751678,0.7954732,2.6991208,-0.016340645,3.8530326,-4.5937066
195,2026-05-11 16:17:11.222562,2.8751678,0.7954732,2.6991208,-0.016340645,3.8530326,-4.5937066
196,2026-05-11 16:17:11.225422,2.8751678,0.7954732,2.6991208,-0.016340645,3.8530326,-4.5937066
197,2026-05-11 16:17:11.228052,2.8751678,0.7954732,2.6991208,-0.016340645,3.8530326,-4.5937066
198,2026-05-11 16:17:11.230703,2.8751678,0.7954732,2.6991208,-0.016340645,3.8530326,-4.5937066
199,2026-05-11 16:17:11.233893,2.8751678,0.7954732,2.6991208,-0.016340645,3.8530326,-4.5937066
200,2026-05-11 16:17:11.236547,2.8751678,0.7954732,2.6991208,-0.016340645,3.8530326,-4.5937066
201,2026-05-11 16:17:11.239290,2.8751678,0.7954732,2.6991208,-0.016340645,3.8530326,-4.5937066
202,2026-05-11 16:17:11.241871,2.8751678,0.7954732,2.6991208,-0.016340645,3.8530326,-4.5937066
203,2026-05-11 16:17:11.244498,2.8751678,0.7954732,2.6991208,-0.016340645,3.8530326,-4.5937066
204,2026-05-11 16:17:11.247084,2.8751678,0.7954732,2.6991208,-0.016340645,3.8530326,-4.5937066
205,2026-05-11 16:17:11.250159,2.8751678,0.7954732,2.6991208,-0.016340645,3.8530326,-4.5937066
206,2026-05-11 16:17:11.252877,2.8751678,0.7954732,2.6991208,-0.016340645,3.8530326,-4.5937066
207,2026-05-11 16:17:11.255461,2.8751678,0.7954732,2.6991208,-0.016340645,3.8530326,-4.5937066
208,2026-05-11 16:17:11.258036,2.8751678,0.7954732,2.6991208,-0.016340645,3.8530326,-4.5937066
209,2026-05-11 16:17:11.260822,2.8751678,0.7954732,2.6991208,-0.016340645,3.8530326,-4.5937066
210,2026-05-11 16:17:11.263398,2.8751678,0.7954732,2.6991208,-0.016340645,3.8530326,-4.5937066
211,2026-05-11 16:17:11.266426,2.8751678,0.7954732,2.6991208,-0.016340645,3.8530326,-4.5937066
212,2026-05-11 16:17:11.269129,2.8751678,0.7954732,2.6991208,-0.016340645,3.8530326,-4.5937066
213,2026-05-11 16:17:11.271733,2.8751678,0.7954732,2.6991208,-0.016340645,3.8530326,-4.5937066
214,2026-05-11 16:17:11.274440,2.8751678,0.7954732,2.6991208,-0.016340645,3.8530326,-4.5937066
215,2026-05-11 16:17:11.276999,2.8751678,0.7954732,2.6991208,-0.016340645,3.8530326,-4.5937066
216,2026-05-11 16:17:11.279629,2.8751678,0.7954732,2.6991208,-0.016340645,3.8530326,-4.5937066
217,2026-05-11 16:17:11.282498,2.8751678,0.7954732,2.6991208,-0.016340645,3.8530326,-4.5937066
218,2026-05-11 16:17:11.285319,2.8751678,0.7954732,2.6991208,-0.016340645,3.8530326,-4.5937066
219,2026-05-11 16:17:11.287885,2.8751678,0.7954732,2.6991208,-0.016340645,3.8530326,-4.5937066
220,2026-05-11 16:17:11.290441,2.8751678,0.7954732,2.6991208,-0.016340645,3.8530326,-4.5937066
221,2026-05-11 16:17:11.293187,2.8751678,0.7954732,2.6991208,-0.016340645,3.8530326,-4.5937066
222,2026-05-11 16:17:11.295760,2.8751678,0.7954732,2.6991208,-0.016340645,3.8530326,-4.5937066
223,2026-05-11 16:17:11.298765,2.9935894,0.3954499,3.0846312,2.3047945,4.15648,-4.9838967
224,2026-05-11 16:17:11.301670,2.9935894,0.3954499,3.0846312,2.3047945,4.15648,-4.9838967
225,2026-05-11 16:17:11.304262,2.9935894,0.3954499,3.0846312,2.3047945,4.15648,-4.9838967
226,2026-05-11 16:17:11.307097,2.9935894,0.3954499,3.0846312,2.3047945,4.15648,-4.9838967
227,2026-05-11 16:17:11.309782,2.9935894,0.3954499,3.0846312,2.3047945,4.15648,-4.9838967
228,2026-05-11 16:17:11.312474,2.9935894,0.3954499,3.0846312,2.3047945,4.15648,-4.9838967
229,2026-05-11 16:17:11.315554,3.067557,0.14653294,3.234213,2.3047945,4.15648,-4.9838967
230,2026-05-11 16:17:11.318480,3.067557,0.14653294,3.234213,2.3047945,4.15648,-4.9838967
231,2026-05-11 16:17:11.321051,3.067557,0.14653294,3.234213,2.3047945,4.15648,-4.9838967
232,2026-05-11 16:17:11.323678,3.067557,0.14653294,3.234213,2.3047945,4.15648,-4.9838967
233,2026-05-11 16:17:11.326257,3.067557,0.14653294,3.234213,2.3047945,4.15648,-4.9838967
234,2026-05-11 16:17:11.329032,3.067557,0.14653294,3.234213,2.3047945,4.15648,-4.9838967
235,2026-05-11 16:17:11.332144,3.067557,0.14653294,3.234213,2.3047945,4.15648,-4.9838967
236,2026-05-11 16:17:11.335064,3.067557,0.14653294,3.234213,2.3047945,4.15648,-4.9838967
237,2026-05-11 16:17:11.337702,3.067557,0.14653294,3.234213,2.3047945,4.15648,-4.9838967
238,2026-05-11 16:17:11.340260,3.067557,0.14653294,3.234213,2.3047945,4.15648,-4.9838967
239,2026-05-11 16:17:11.342869,3.067557,0.14653294,3.234213,2.3047945,4.15648,-4.9838967
240,2026-05-11 16:17:11.345410,3.067557,0.14653294,3.234213,2.3047945,4.15648,-4.9838967
241,2026-05-11 16:17:11.348063,3.067557,0.14653294,3.234213,2.3047945,4.15648,-4.9838967
242,2026-05-11 16:17:11.351173,3.067557,0.14653294,3.234213,2.3047945,4.15648,-4.9838967
243,2026-05-11 16:17:11.353788,3.067557,0.14653294,3.234213,2.3047945,4.15648,-4.9838967
244,2026-05-11 16:17:11.356577,3.067557,0.14653294,3.234213,2.3047945,4.15648,-4.9838967
245,2026-05-11 16:17:11.359317,3.067557,0.14653294,3.234213,2.3047945,4.15648,-4.9838967
246,2026-05-11 16:17:11.361956,3.067557,0.14653294,3.234213,2.3047945,4.15648,-4.9838967
247,2026-05-11 16:17:11.364542,3.067557,0.14653294,3.234213,2.3047945,4.15648,-4.9838967
248,2026-05-11 16:17:11.367691,3.067557,0.14653294,3.234213,2.3047945,4.15648,-4.9838967
249,2026-05-11 16:17:11.370352,3.067557,0.14653294,3.234213,2.3047945,4.15648,-4.9838967
250,2026-05-11 16:17:11.373171,3.067557,0.14653294,3.234213,2.3047945,4.15648,-4.9838967
251,2026-05-11 16:17:11.375801,3.067557,0.14653294,3.234213,2.3047945,4.15648,-4.9838967
252,2026-05-11 16:17:11.378506,3.067557,0.14653294,3.234213,2.3047945,4.15648,-4.9838967
253,2026-05-11 16:17:11.381099,3.067557,0.14653294,3.234213,2.3047945,4.15648,-4.9838967
254,2026-05-11 16:17:11.384402,3.067557,0.14653294,3.234213,2.3047945,4.15648,-4.9838967
255,2026-05-11 16:17:11.387145,3.067557,0.14653294,3.234213,2.3047945,4.15648,-4.9838967
256,2026-05-11 16:17:11.389895,3.067557,0.14653294,3.234213,2.3047945,4.15648,-4.9838967
257,2026-05-11 16:17:11.392555,3.067557,0.14653294,3.234213,2.3047945,4.15648,-4.9838967
258,2026-05-11 16:17:11.395163,3.067557,0.14653294,3.234213,2.3047945,4.15648,-4.9838967
259,2026-05-11 16:17:11.398144,3.067557,0.14653294,3.234213,2.3047945,4.15648,-4.9838967
260,2026-05-11 16:17:11.401633,3.067557,0.14653294,3.234213,2.3047945,4.15648,-4.9838967
261,2026-05-11 16:17:11.404436,3.067557,0.14653294,3.234213,2.3047945,4.15648,-4.9838967
262,2026-05-11 16:17:11.407038,3.067557,0.14653294,3.234213,2.3047945,4.15648,-4.9838967
263,2026-05-11 16:17:11.409830,3.067557,0.14653294,3.234213,2.3047945,4.15648,-4.9838967
264,2026-05-11 16:17:11.412474,3.067557,0.14653294,3.234213,2.3047945,4.15648,-4.9838967
265,2026-05-11 16:17:11.415262,3.067557,0.14653294,3.234213,2.3047945,4.15648,-4.9838967
266,2026-05-11 16:17:11.420799,3.0787773,0.077077664,3.245738,2.3047945,4.15648,-4.9838967
267,2026-05-11 16:17:11.445362,3.0787773,0.077077664,3.245738,2.3047945,4.15648,-4.9838967
268,2026-05-11 16:17:11.449500,3.0787773,0.077077664,3.245738,2.3047945,4.15648,-4.9838967
269,2026-05-11 16:17:11.457643,3.0787773,0.077077664,3.245738,2.3047945,4.15648,-4.9838967
270,2026-05-11 16:17:11.460396,3.0787773,0.077077664,3.245738,2.3047945,4.15648,-4.9838967
271,2026-05-11 16:17:11.463005,3.0787773,0.077077664,3.245738,2.3047945,4.15648,-4.9838967
272,2026-05-11 16:17:11.465961,3.0787773,0.077077664,3.245738,2.3047945,4.15648,-4.9838967
273,2026-05-11 16:17:11.468798,3.0787773,0.077077664,3.245738,2.3047945,4.15648,-4.9838967
274,2026-05-11 16:17:11.471620,3.0787773,0.077077664,3.245738,2.3047945,4.15648,-4.9838967
275,2026-05-11 16:17:11.474222,3.0787773,0.077077664,3.245738,2.3047945,4.15648,-4.9838967
276,2026-05-11 16:17:11.476989,3.0787773,0.077077664,3.245738,2.3047945,4.15648,-4.9838967
277,2026-05-11 16:17:11.479568,3.0787773,0.077077664,3.245738,2.3047945,4.15648,-4.9838967
278,2026-05-11 16:17:11.482524,3.0787773,0.077077664,3.245738,2.3047945,4.15648,-4.9838967
279,2026-05-11 16:17:11.485767,3.0787773,0.077077664,3.245738,2.3047945,4.15648,-4.9838967
280,2026-05-11 16:17:11.488509,3.0787773,0.077077664,3.245738,2.3047945,4.15648,-4.9838967
281,2026-05-11 16:17:11.491131,3.0787773,0.077077664,3.245738,2.3047945,4.15648,-4.9838967
282,2026-05-11 16:17:11.493855,3.0787773,0.077077664,3.245738,2.3047945,4.15648,-4.9838967
283,2026-05-11 16:17:11.496425,3.0787773,0.077077664,3.245738,2.3047945,4.15648,-4.9838967
284,2026-05-11 16:17:11.499364,3.0787773,0.077077664,3.245738,2.3047945,4.15648,-4.9838967
285,2026-05-11 16:17:11.502430,3.0787773,0.077077664,3.245738,2.3047945,4.15648,-4.9838967
286,2026-05-11 16:17:11.505111,3.0787773,0.077077664,3.245738,2.3047945,4.15648,-4.9838967
287,2026-05-11 16:17:11.507921,3.0787773,0.077077664,3.245738,2.3047945,4.15648,-4.9838967
288,2026-05-11 16:17:11.510511,3.0787773,0.077077664,3.245738,2.3047945,4.15648,-4.9838967
289,2026-05-11 16:17:11.513163,3.0787773,0.077077664,3.245738,2.3047945,4.15648,-4.9838967
290,2026-05-11 16:17:11.516216,3.0787773,0.077077664,3.245738,2.3047945,4.15648,-4.9838967
291,2026-05-11 16:17:11.519018,3.0787773,0.077077664,3.245738,2.3047945,4.15648,-4.9838967
292,2026-05-11 16:17:11.521687,3.0787773,0.077077664,3.245738,2.3047945,4.15648,-4.9838967
293,2026-05-11 16:17:11.524259,3.0787773,0.077077664,3.245738,2.3047945,4.15648,-4.9838967
294,2026-05-11 16:17:11.527064,3.0787773,0.077077664,3.245738,2.3047945,4.15648,-4.9838967
295,2026-05-11 16:17:11.529639,3.0787773,0.077077664,3.245738,2.3047945,4.15648,-4.9838967
296,2026-05-11 16:17:11.532610,3.0787773,0.077077664,3.245738,2.3047945,4.15648,-4.9838967
297,2026-05-11 16:17:11.535394,3.0787773,0.077077664,3.245738,2.3047945,4.15648,-4.9838967
298,2026-05-11 16:17:11.537988,3.0787773,0.077077664,3.245738,2.3047945,4.15648,-4.9838967
299,2026-05-11 16:17:11.540558,3.0787773,0.077077664,3.245738,2.3047945,4.15648,-4.9838967
300,2026-05-11 16:17:11.543168,3.0787773,0.077077664,3.245738,2.3047945,4.15648,-4.9838967
301,2026-05-11 16:17:11.545716,3.0787773,0.077077664,3.245738,2.3047945,4.15648,-4.9838967
302,2026-05-11 16:17:11.548505,3.0787773,0.077077664,3.245738,2.3047945,4.15648,-4.9838967
303,2026-05-11 16:17:11.551394,3.0787773,0.077077664,3.245738,2.3047945,4.15648,-4.9838967
304,2026-05-11 16:17:11.553988,3.0787773,0.077077664,3.245738,2.3047945,4.15648,-4.9838967
305,2026-05-11 16:17:11.556779,3.0787773,0.077077664,3.245738,2.3047945,4.15648,-4.9838967
306,2026-05-11 16:17:11.559408,3.0787773,0.077077664,3.245738,2.3047945,4.15648,-4.9838967
307,2026-05-11 16:17:11.562144,3.0787773,0.077077664,3.245738,2.3047945,4.15648,-4.9838967
308,2026-05-11 16:17:11.565039,3.0787773,0.077077664,3.245738,2.3047945,4.15648,-4.9838967
309,2026-05-11 16:17:11.568074,3.0787773,0.077077664,3.245738,2.3047945,4.15648,-4.9838967
310,2026-05-11 16:17:11.570662,3.0787773,0.077077664,3.245738,2.3047945,4.15648,-4.9838967
311,2026-05-11 16:17:11.573198,3.0787773,0.077077664,3.245738,2.3047945,4.15648,-4.9838967
312,2026-05-11 16:17:11.575846,3.0787773,0.077077664,3.245738,2.3047945,4.15648,-4.9838967
313,2026-05-11 16:17:11.578372,3.0787773,0.077077664,3.245738,2.3047945,4.15648,-4.9838967
314,2026-05-11 16:17:11.581049,3.0787773,0.077077664,3.245738,2.8115072,4.164421,-5.0788865
315,2026-05-11 16:17:11.584172,3.0787773,0.077077664,3.245738,2.8115072,4.164421,-5.0788865
316,2026-05-11 16:17:11.586827,3.0787773,0.077077664,3.245738,2.8115072,4.164421,-5.0788865
317,2026-05-11 16:17:11.589419,3.0787773,0.077077664,3.245738,2.8115072,4.164421,-5.0788865
318,2026-05-11 16:17:11.592027,3.0787773,0.077077664,3.245738,2.8115072,4.164421,-5.0788865
319,2026-05-11 16:17:11.594877,3.0787773,0.077077664,3.245738,2.8115072,4.164421,-5.0788865
320,2026-05-11 16:17:11.597453,3.0787773,0.077077664,3.245738,2.8115072,4.164421,-5.0788865
321,2026-05-11 16:17:11.600644,3.0787773,0.077077664,3.245738,2.8115072,4.164421,-5.0788865
322,2026-05-11 16:17:11.603341,3.0787773,0.077077664,3.245738,2.8115072,4.164421,-5.0788865
323,2026-05-11 16:17:11.605943,3.0787773,0.077077664,3.245738,2.8115072,4.164421,-5.0788865
324,2026-05-11 16:17:11.608740,3.0787773,0.077077664,3.245738,2.8115072,4.164421,-5.0788865
325,2026-05-11 16:17:11.611341,3.0787773,0.077077664,3.245738,2.8115072,4.164421,-5.0788865
326,2026-05-11 16:17:11.614175,3.0787773,0.077077664,3.245738,2.8115072,4.164421,-5.0788865
327,2026-05-11 16:17:11.617183,3.0787773,0.077077664,3.245738,2.8115072,4.164421,-5.0788865
328,2026-05-11 16:17:11.619958,3.0787773,0.077077664,3.245738,2.8115072,4.164421,-5.0788865
329,2026-05-11 16:17:11.622585,3.0787773,0.077077664,3.245738,2.8115072,4.164421,-5.0788865
330,2026-05-11 16:17:11.625208,3.0787773,0.077077664,3.245738,2.8115072,4.164421,-5.0788865
331,2026-05-11 16:17:11.627916,3.0787773,0.077077664,3.245738,2.8115072,4.164421,-5.0788865
332,2026-05-11 16:17:11.630505,3.0787773,0.077077664,3.245738,2.8115072,4.164421,-5.0788865
333,2026-05-11 16:17:11.633510,3.0787773,0.077077664,3.245738,2.8115072,4.164421,-5.0788865
334,2026-05-11 16:17:11.636166,3.0787773,0.077077664,3.245738,2.8115072,4.164421,-5.0788865
335,2026-05-11 16:17:11.638769,3.0787773,0.077077664,3.245738,2.8115072,4.164421,-5.0788865
336,2026-05-11 16:17:11.641507,3.0787773,0.077077664,3.245738,2.8115072,4.164421,-5.0788865
337,2026-05-11 16:17:11.644119,3.035421,-0.7730329,2.9842596,2.8115072,4.164421,-5.0788865
338,2026-05-11 16:17:11.646834,3.035421,-0.7730329,2.9842596,2.8115072,4.164421,-5.0788865
339,2026-05-11 16:17:11.649769,3.035421,-0.7730329,2.9842596,2.8115072,4.164421,-5.0788865
340,2026-05-11 16:17:11.652487,3.035421,-0.7730329,2.9842596,2.8115072,4.164421,-5.0788865
341,2026-05-11 16:17:11.655017,3.035421,-0.7730329,2.9842596,2.8115072,4.164421,-5.0788865
342,2026-05-11 16:17:11.657587,3.035421,-0.7730329,2.9842596,2.8115072,4.164421,-5.0788865
343,2026-05-11 16:17:11.660176,3.035421,-0.7730329,2.9842596,2.8115072,4.164421,-5.0788865
344,2026-05-11 16:17:11.662665,3.035421,-0.7730329,2.9842596,2.8115072,4.164421,-5.0788865
345,2026-05-11 16:17:11.665761,3.035421,-0.7730329,2.9842596,2.8115072,4.164421,-5.0788865
346,2026-05-11 16:17:11.668569,3.035421,-0.7730329,2.9842596,2.8115072,4.164421,-5.0788865
347,2026-05-11 16:17:11.671223,3.035421,-0.7730329,2.9842596,2.8115072,4.164421,-5.0788865
348,2026-05-11 16:17:11.673883,3.035421,-0.7730329,2.9842596,5.371949,3.9078577,-5.370116
349,2026-05-11 16:17:11.676438,3.035421,-0.7730329,2.9842596,5.371949,3.9078577,-5.370116
350,2026-05-11 16:17:11.679196,3.035421,-0.7730329,2.9842596,5.371949,3.9078577,-5.370116
351,2026-05-11 16:17:11.682085,3.035421,-0.7730329,2.9842596,5.371949,3.9078577,-5.370116
352,2026-05-11 16:17:11.685034,3.035421,-0.7730329,2.9842596,5.371949,3.9078577,-5.370116
353,2026-05-11 16:17:11.687672,3.035421,-0.7730329,2.9842596,5.371949,3.9078577,-5.370116
354,2026-05-11 16:17:11.690233,3.035421,-0.7730329,2.9842596,5.371949,3.9078577,-5.370116
355,2026-05-11 16:17:11.693104,3.035421,-0.7730329,2.9842596,5.371949,3.9078577,-5.370116
356,2026-05-11 16:17:11.695706,3.035421,-0.7730329,2.9842596,5.371949,3.9078577,-5.370116
357,2026-05-11 16:17:11.698630,3.035421,-0.7730329,2.9842596,5.371949,3.9078577,-5.370116
358,2026-05-11 16:17:11.701659,3.035421,-0.7730329,2.9842596,5.371949,3.9078577,-5.370116
359,2026-05-11 16:17:11.704251,3.035421,-0.7730329,2.9842596,5.371949,3.9078577,-5.370116
360,2026-05-11 16:17:11.706849,3.035421,-0.7730329,2.9842596,5.371949,3.9078577,-5.370116
361,2026-05-11 16:17:11.709430,3.035421,-0.7730329,2.9842596,5.371949,3.9078577,-5.370116
362,2026-05-11 16:17:11.712238,3.035421,-0.7730329,2.9842596,5.371949,3.9078577,-5.370116
363,2026-05-11 16:17:11.715151,3.035421,-0.7730329,2.9842596,5.371949,3.9078577,-5.370116
364,2026-05-11 16:17:11.718206,3.035421,-0.7730329,2.9842596,5.371949,3.9078577,-5.370116
365,2026-05-11 16:17:11.720808,3.035421,-0.7730329,2.9842596,5.371949,3.9078577,-5.370116
366,2026-05-11 16:17:11.723384,3.035421,-0.7730329,2.9842596,5.371949,3.9078577,-5.370116
367,2026-05-11 16:17:11.725980,3.035421,-0.7730329,2.9842596,5.371949,3.9078577,-5.370116
368,2026-05-11 16:17:11.728517,3.035421,-0.7730329,2.9842596,5.371949,3.9078577,-5.370116
369,2026-05-11 16:17:11.731343,3.035421,-0.7730329,2.9842596,5.371949,3.9078577,-5.370116
370,2026-05-11 16:17:11.734276,3.035421,-0.7730329,2.9842596,5.371949,3.9078577,-5.370116
371,2026-05-11 16:17:11.736871,3.035421,-0.7730329,2.9842596,5.371949,3.9078577,-5.370116
372,2026-05-11 16:17:11.739529,3.035421,-0.7730329,2.9842596,5.371949,3.9078577,-5.370116
373,2026-05-11 16:17:11.742132,3.035421,-0.7730329,2.9842596,5.371949,3.9078577,-5.370116
374,2026-05-11 16:17:11.744892,3.035421,-0.7730329,2.9842596,5.371949,3.9078577,-5.370116
375,2026-05-11 16:17:11.747467,3.035421,-0.7730329,2.9842596,5.371949,3.9078577,-5.370116
376,2026-05-11 16:17:11.750664,3.035421,-0.7730329,2.9842596,5.371949,3.9078577,-5.370116
377,2026-05-11 16:17:11.753368,3.035421,-0.7730329,2.9842596,5.371949,3.9078577,-5.370116
378,2026-05-11 16:17:11.756171,2.9603555,-1.0757335,2.7947361,6.2131104,3.492011,-5.3918023
379,2026-05-11 16:17:11.758800,2.9603555,-1.0757335,2.7947361,6.2131104,3.492011,-5.3918023
380,2026-05-11 16:17:11.761340,2.9603555,-1.0757335,2.7947361,6.2131104,3.492011,-5.3918023
381,2026-05-11 16:17:11.764047,2.9603555,-1.0757335,2.7947361,6.2131104,3.492011,-5.3918023
382,2026-05-11 16:17:11.767011,2.9603555,-1.0757335,2.7947361,6.2131104,3.492011,-5.3918023
383,2026-05-11 16:17:11.769642,2.9603555,-1.0757335,2.7947361,6.2131104,3.492011,-5.3918023
384,2026-05-11 16:17:11.772347,2.9603555,-1.0757335,2.7947361,6.2131104,3.492011,-5.3918023
385,2026-05-11 16:17:11.774914,2.9603555,-1.0757335,2.7947361,6.2131104,3.492011,-5.3918023
386,2026-05-11 16:17:11.777806,2.9603555,-1.0757335,2.7947361,6.2131104,3.492011,-5.3918023
387,2026-05-11 16:17:11.780408,2.9603555,-1.0757335,2.7947361,6.2131104,3.492011,-5.3918023
388,2026-05-11 16:17:11.783583,2.9603555,-1.0757335,2.7947361,6.2131104,3.492011,-5.3918023
389,2026-05-11 16:17:11.786447,2.9603555,-1.0757335,2.7947361,6.2131104,3.492011,-5.3918023
390,2026-05-11 16:17:11.789122,2.9603555,-1.0757335,2.7947361,6.2131104,3.492011,-5.3918023
391,2026-05-11 16:17:11.791805,2.9603555,-1.0757335,2.7947361,6.2131104,3.492011,-5.3918023
392,2026-05-11 16:17:11.794373,2.9603555,-1.0757335,2.7947361,6.2131104,3.492011,-5.3918023
393,2026-05-11 16:17:11.797069,2.9603555,-1.0757335,2.7947361,6.2131104,3.492011,-5.3918023
394,2026-05-11 16:17:11.799984,2.9603555,-1.0757335,2.7947361,6.2131104,3.492011,-5.3918023
395,2026-05-11 16:17:11.802771,2.9603555,-1.0757335,2.7947361,6.2131104,3.492011,-5.3918023
396,2026-05-11 16:17:11.805379,2.9603555,-1.0757335,2.7947361,6.2131104,3.492011,-5.3918023
397,2026-05-11 16:17:11.807939,2.9603555,-1.0757335,2.7947361,6.2131104,3.492011,-5.3918023
398,2026-05-11 16:17:11.810640,2.9603555,-1.0757335,2.7947361,6.2131104,3.492011,-5.3918023
399,2026-05-11 16:17:11.813194,2.9603555,-1.0757335,2.7947361,6.2131104,3.492011,-5.3918023
400,2026-05-11 16:17:11.816195,2.9603555,-1.0757335,2.7947361,6.2131104,3.492011,-5.3918023
401,2026-05-11 16:17:11.818854,2.9603555,-1.0757335,2.7947361,6.2131104,3.492011,-5.3918023
402,2026-05-11 16:17:11.821419,2.9603555,-1.0757335,2.7947361,6.2131104,3.492011,-5.3918023
403,2026-05-11 16:17:11.824142,2.9603555,-1.0757335,2.7947361,6.2131104,3.492011,-5.3918023
404,2026-05-11 16:17:11.826719,2.9603555,-1.0757335,2.7947361,6.2131104,3.492011,-5.3918023
405,2026-05-11 16:17:11.829507,2.9603555,-1.0757335,2.7947361,6.2131104,3.492011,-5.3918023
406,2026-05-11 16:17:11.832360,2.9603555,-1.0757335,2.7947361,6.2131104,3.492011,-5.3918023
407,2026-05-11 16:17:11.835761,2.9603555,-1.0757335,2.7947361,6.2131104,3.492011,-5.3918023
408,2026-05-11 16:17:11.838532,2.9603555,-1.0757335,2.7947361,6.2131104,3.492011,-5.3918023
409,2026-05-11 16:17:11.841333,2.9603555,-1.0757335,2.7947361,6.2131104,3.492011,-5.3918023
410,2026-05-11 16:17:11.843943,2.9603555,-1.0757335,2.7947361,6.2131104,3.492011,-5.3918023
411,2026-05-11 16:17:11.846627,2.9603555,-1.0757335,2.7947361,6.2131104,3.492011,-5.3918023
412,2026-05-11 16:17:11.849498,2.9603555,-1.0757335,2.7947361,6.2131104,3.492011,-5.3918023
413,2026-05-11 16:17:11.852871,2.9603555,-1.0757335,2.7947361,6.2131104,3.492011,-5.3918023
414,2026-05-11 16:17:11.855734,2.9603555,-1.0757335,2.7947361,6.4967046,3.2876768,-5.404172
415,2026-05-11 16:17:11.858494,2.9603555,-1.0757335,2.7947361,6.4967046,3.2876768,-5.404172
416,2026-05-11 16:17:11.861134,2.9603555,-1.0757335,2.7947361,6.4967046,3.2876768,-5.404172
417,2026-05-11 16:17:11.863755,2.9603555,-1.0757335,2.7947361,6.4967046,3.2876768,-5.404172
418,2026-05-11 16:17:11.866637,2.9603555,-1.0757335,2.7947361,6.4967046,3.2876768,-5.404172
419,2026-05-11 16:17:11.869448,2.9603555,-1.0757335,2.7947361,6.4967046,3.2876768,-5.404172
420,2026-05-11 16:17:11.872132,2.9603555,-1.0757335,2.7947361,6.4967046,3.2876768,-5.404172
421,2026-05-11 16:17:11.874975,2.9603555,-1.0757335,2.7947361,6.4967046,3.2876768,-5.404172
422,2026-05-11 16:17:11.877683,2.9585874,-1.135676,2.7244883,6.4967046,3.2876768,-5.404172
423,2026-05-11 16:17:11.880323,2.9585874,-1.135676,2.7244883,6.4967046,3.2876768,-5.404172
424,2026-05-11 16:17:11.883306,2.9585874,-1.135676,2.7244883,6.4967046,3.2876768,-5.404172
425,2026-05-11 16:17:11.885994,2.9585874,-1.135676,2.7244883,6.4967046,3.2876768,-5.404172
426,2026-05-11 16:17:11.888644,2.9585874,-1.135676,2.7244883,6.4967046,3.2876768,-5.404172
427,2026-05-11 16:17:11.891361,2.9585874,-1.135676,2.7244883,6.4967046,3.2876768,-5.404172
428,2026-05-11 16:17:11.894130,2.9585874,-1.135676,2.7244883,6.4967046,3.2876768,-5.404172
429,2026-05-11 16:17:11.896765,2.9585874,-1.135676,2.7244883,6.4967046,3.2876768,-5.404172
430,2026-05-11 16:17:11.899800,2.9585874,-1.135676,2.7244883,6.4967046,3.2876768,-5.404172
431,2026-05-11 16:17:11.902578,2.9585874,-1.135676,2.7244883,6.4967046,3.2876768,-5.404172
432,2026-05-11 16:17:11.905133,2.9585874,-1.135676,2.7244883,6.4967046,3.2876768,-5.404172
433,2026-05-11 16:17:11.907715,2.9585874,-1.135676,2.7244883,6.4967046,3.2876768,-5.404172
434,2026-05-11 16:17:11.910477,2.9585874,-1.135676,2.7244883,6.4967046,3.2876768,-5.404172
435,2026-05-11 16:17:11.913208,2.9585874,-1.135676,2.7244883,7.184539,2.7568347,-5.545282
436,2026-05-11 16:17:11.916422,2.9585874,-1.135676,2.7244883,7.184539,2.7568347,-5.545282
437,2026-05-11 16:17:11.919365,2.842178,-1.2633665,2.461729,7.184539,2.7568347,-5.545282
438,2026-05-11 16:17:11.922017,2.842178,-1.2633665,2.461729,7.184539,2.7568347,-5.545282
439,2026-05-11 16:17:11.924612,2.842178,-1.2633665,2.461729,7.184539,2.7568347,-5.545282
440,2026-05-11 16:17:11.927357,2.842178,-1.2633665,2.461729,7.184539,2.7568347,-5.545282
441,2026-05-11 16:17:11.930077,2.6659484,-1.2991002,2.2847066,7.2667003,2.6755898,-5.5547504
442,2026-05-11 16:17:11.932956,2.6659484,-1.2991002,2.2847066,7.2667003,2.6755898,-5.5547504
443,2026-05-11 16:17:11.936245,2.6659484,-1.2991002,2.2847066,7.2667003,2.6755898,-5.5547504
444,2026-05-11 16:17:11.938975,2.6659484,-1.2991002,2.2847066,7.2667003,2.6755898,-5.5547504
445,2026-05-11 16:17:11.941760,2.6659484,-1.2991002,2.2847066,7.2667003,2.6755898,-5.5547504
446,2026-05-11 16:17:11.944519,2.6659484,-1.2991002,2.2847066,7.2667003,2.6755898,-5.5547504
447,2026-05-11 16:17:11.947154,2.6659484,-1.2991002,2.2847066,7.2667003,2.6755898,-5.5547504
448,2026-05-11 16:17:11.950188,2.6659484,-1.2991002,2.2847066,7.2667003,2.6755898,-5.5547504
449,2026-05-11 16:17:11.953467,2.6659484,-1.2991002,2.2847066,7.2667003,2.6755898,-5.5547504
450,2026-05-11 16:17:11.956277,2.6659484,-1.2991002,2.2847066,7.2667003,2.6755898,-5.5547504
451,2026-05-11 16:17:11.958974,2.6659484,-1.2991002,2.2847066,7.2667003,2.6755898,-5.5547504
452,2026-05-11 16:17:11.962041,2.6659484,-1.2991002,2.2847066,7.2667003,2.6755898,-5.5547504
453,2026-05-11 16:17:11.965626,2.6659484,-1.2991002,2.2847066,7.2667003,2.6755898,-5.5547504
454,2026-05-11 16:17:11.968922,2.6659484,-1.2991002,2.2847066,7.2667003,2.6755898,-5.5547504
455,2026-05-11 16:17:11.972119,2.6659484,-1.2991002,2.2847066,7.2667003,2.6755898,-5.5547504
456,2026-05-11 16:17:11.975046,2.6659484,-1.2991002,2.2847066,7.2667003,2.6755898,-5.5547504
457,2026-05-11 16:17:11.977925,2.6659484,-1.2991002,2.2847066,7.2667003,2.6755898,-5.5547504
458,2026-05-11 16:17:11.980854,2.6659484,-1.2991002,2.2847066,7.2667003,2.6755898,-5.5547504
459,2026-05-11 16:17:11.984548,2.6659484,-1.2991002,2.2847066,7.2667003,2.6755898,-5.5547504
460,2026-05-11 16:17:11.987434,2.6659484,-1.2991002,2.2847066,7.2667003,2.6755898,-5.5547504
461,2026-05-11 16:17:11.990443,2.6659484,-1.2991002,2.2847066,7.2667003,2.6755898,-5.5547504
462,2026-05-11 16:17:11.993320,2.6659484,-1.2991002,2.2847066,7.2667003,2.6755898,-5.5547504
463,2026-05-11 16:17:11.996239,2.6659484,-1.2991002,2.2847066,7.2572317,2.5360072,-5.5158076
464,2026-05-11 16:17:11.999445,2.6659484,-1.2991002,2.2847066,7.2572317,2.5360072,-5.5158076
465,2026-05-11 16:17:12.002289,2.6659484,-1.2991002,2.2847066,7.2572317,2.5360072,-5.5158076
466,2026-05-11 16:17:12.004884,2.6659484,-1.2991002,2.2847066,7.2572317,2.5360072,-5.5158076
467,2026-05-11 16:17:12.007443,2.6659484,-1.2991002,2.2847066,7.2572317,2.5360072,-5.5158076
468,2026-05-11 16:17:12.010309,2.6659484,-1.2991002,2.2847066,7.2572317,2.5360072,-5.5158076
469,2026-05-11 16:17:12.012893,2.6659484,-1.2991002,2.2847066,7.2572317,2.5360072,-5.5158076
470,2026-05-11 16:17:12.015906,2.6659484,-1.2991002,2.2847066,7.2572317,2.5360072,-5.5158076
471,2026-05-11 16:17:12.018689,2.6659484,-1.2991002,2.2847066,7.2572317,2.5360072,-5.5158076
472,2026-05-11 16:17:12.021287,2.6659484,-1.2991002,2.2847066,7.2572317,2.5360072,-5.5158076
473,2026-05-11 16:17:12.023886,2.6659484,-1.2991002,2.2847066,7.2572317,2.5360072,-5.5158076
474,2026-05-11 16:17:12.026697,2.6659484,-1.2991002,2.2847066,7.2572317,2.5360072,-5.5158076
475,2026-05-11 16:17:12.029302,2.6659484,-1.2991002,2.2847066,7.2572317,2.5360072,-5.5158076
476,2026-05-11 16:17:12.032572,2.6659484,-1.2991002,2.2847066,7.2572317,2.5360072,-5.5158076
477,2026-05-11 16:17:12.035363,2.6659484,-1.2991002,2.2847066,7.2572317,2.5360072,-5.5158076
478,2026-05-11 16:17:12.038024,2.6659484,-1.2991002,2.2847066,7.2572317,2.5360072,-5.5158076
479,2026-05-11 16:17:12.040589,2.6659484,-1.2991002,2.2847066,7.2572317,2.5360072,-5.5158076
480,2026-05-11 16:17:12.043305,2.6659484,-1.2991002,2.2847066,7.2572317,2.5360072,-5.5158076
481,2026-05-11 16:17:12.045982,2.6659484,-1.2991002,2.2847066,7.2572317,2.5360072,-5.5158076
482,2026-05-11 16:17:12.048925,2.6659484,-1.2991002,2.2847066,7.2572317,2.5360072,-5.5158076
483,2026-05-11 16:17:12.051781,2.6659484,-1.2991002,2.2847066,7.2572317,2.5360072,-5.5158076
484,2026-05-11 16:17:12.054493,2.6659484,-1.2991002,2.2847066,7.2572317,2.5360072,-5.5158076
485,2026-05-11 16:17:12.057067,2.6659484,-1.2991002,2.2847066,7.2572317,2.5360072,-5.5158076
486,2026-05-11 16:17:12.059710,2.6659484,-1.2991002,2.2847066,7.2572317,2.5360072,-5.5158076
487,2026-05-11 16:17:12.062274,2.6659484,-1.2991002,2.2847066,7.2572317,2.5360072,-5.5158076
488,2026-05-11 16:17:12.065457,2.6659484,-1.2991002,2.2847066,7.2572317,2.5360072,-5.5158076
489,2026-05-11 16:17:12.068154,2.6659484,-1.2991002,2.2847066,7.2572317,2.5360072,-5.5158076
490,2026-05-11 16:17:12.070781,2.6659484,-1.2991002,2.2847066,7.2572317,2.5360072,-5.5158076
491,2026-05-11 16:17:12.073556,2.6659484,-1.2991002,2.2847066,7.2572317,2.5360072,-5.5158076
492,2026-05-11 16:17:12.076326,2.6659484,-1.2991002,2.2847066,7.2572317,2.5360072,-5.5158076
493,2026-05-11 16:17:12.078946,2.6659484,-1.2991002,2.2847066,7.2572317,2.5360072,-5.5158076
494,2026-05-11 16:17:12.081938,2.6659484,-1.2991002,2.2847066,7.2572317,2.5360072,-5.5158076
495,2026-05-11 16:17:12.084754,2.6659484,-1.2991002,2.2847066,7.2572317,2.5360072,-5.5158076
496,2026-05-11 16:17:12.087367,2.6659484,-1.2991002,2.2847066,7.2572317,2.5360072,-5.5158076
497,2026-05-11 16:17:12.090073,2.6659484,-1.2991002,2.2847066,7.2572317,2.5360072,-5.5158076
498,2026-05-11 16:17:12.092631,2.6659484,-1.2991002,2.2847066,7.2572317,2.5360072,-5.5158076
499,2026-05-11 16:17:12.095498,2.6659484,-1.2991002,2.2847066,7.2572317,2.5360072,-5.5158076
500,2026-05-11 16:17:12.098534,2.4569116,-1.4105701,2.163297,7.262424,2.132225,-5.494122
501,2026-05-11 16:17:12.101587,2.4569116,-1.4105701,2.163297,7.262424,2.132225,-5.494122
502,2026-05-11 16:17:12.104327,2.4569116,-1.4105701,2.163297,7.262424,2.132225,-5.494122
503,2026-05-11 16:17:12.106960,2.4569116,-1.4105701,2.163297,7.262424,2.132225,-5.494122
504,2026-05-11 16:17:12.109851,2.4569116,-1.4105701,2.163297,7.262424,2.132225,-5.494122
505,2026-05-11 16:17:12.112496,2.4569116,-1.4105701,2.163297,7.262424,2.132225,-5.494122
506,2026-05-11 16:17:12.115605,2.4569116,-1.4105701,2.163297,7.262424,2.132225,-5.494122
507,2026-05-11 16:17:12.118403,2.4569116,-1.4105701,2.163297,7.262424,2.132225,-5.494122
508,2026-05-11 16:17:12.121222,2.4569116,-1.4105701,2.163297,7.295869,1.9781344,-5.5116844
509,2026-05-11 16:17:12.124012,2.4027622,-1.4336202,2.1649435,7.295869,1.9781344,-5.5116844
510,2026-05-11 16:17:12.126786,2.4027622,-1.4336202,2.1649435,7.295869,1.9781344,-5.5116844
511,2026-05-11 16:17:12.129525,2.4027622,-1.4336202,2.1649435,7.295869,1.9781344,-5.5116844
512,2026-05-11 16:17:12.132742,2.4027622,-1.4336202,2.1649435,7.295869,1.9781344,-5.5116844
513,2026-05-11 16:17:12.135567,2.4027622,-1.4336202,2.1649435,7.295869,1.9781344,-5.5116844
514,2026-05-11 16:17:12.138260,2.4027622,-1.4336202,2.1649435,7.295869,1.9781344,-5.5116844
515,2026-05-11 16:17:12.140874,2.4027622,-1.4336202,2.1649435,7.295869,1.9781344,-5.5116844
516,2026-05-11 16:17:12.143604,2.1966524,-1.4917943,2.0359726,7.295869,1.9781344,-5.5116844
517,2026-05-11 16:17:12.146446,2.1966524,-1.4917943,2.0359726,7.295869,1.9781344,-5.5116844
518,2026-05-11 16:17:12.149465,2.1966524,-1.4917943,2.0359726,7.295869,1.9781344,-5.5116844
519,2026-05-11 16:17:12.152236,2.1966524,-1.4917943,2.0359726,7.295869,1.9781344,-5.5116844
520,2026-05-11 16:17:12.154905,2.1966524,-1.4917943,2.0359726,7.295869,1.9781344,-5.5116844
521,2026-05-11 16:17:12.157470,2.1966524,-1.4917943,2.0359726,7.295869,1.9781344,-5.5116844
522,2026-05-11 16:17:12.160311,2.1966524,-1.4917943,2.0359726,7.295869,1.9781344,-5.5116844
523,2026-05-11 16:17:12.162941,2.1966524,-1.4917943,2.0359726,7.295869,1.9781344,-5.5116844
524,2026-05-11 16:17:12.166026,2.1966524,-1.4917943,2.0359726,7.295869,1.9781344,-5.5116844
525,2026-05-11 16:17:12.168839,2.1966524,-1.4917943,2.0359726,7.295869,1.9781344,-5.5116844
526,2026-05-11 16:17:12.171470,2.1966524,-1.4917943,2.0359726,7.295869,1.9781344,-5.5116844
527,2026-05-11 16:17:12.174265,2.1966524,-1.4917943,2.0359726,7.295869,1.9781344,-5.5116844
528,2026-05-11 16:17:12.176940,2.1966524,-1.4917943,2.0359726,7.295869,1.9781344,-5.5116844
529,2026-05-11 16:17:12.179698,2.1966524,-1.4917943,2.0359726,7.295869,1.9781344,-5.5116844
530,2026-05-11 16:17:12.182915,2.1966524,-1.4917943,2.0359726,7.295869,1.9781344,-5.5116844
531,2026-05-11 16:17:12.185697,2.1966524,-1.4917943,2.0359726,7.295869,1.9781344,-5.5116844
532,2026-05-11 16:17:12.188309,2.1966524,-1.4917943,2.0359726,7.295869,1.9781344,-5.5116844
533,2026-05-11 16:17:12.191030,2.1966524,-1.4917943,2.0359726,7.295869,1.9781344,-5.5116844
534,2026-05-11 16:17:12.193651,2.1966524,-1.4917943,2.0359726,7.295869,1.9781344,-5.5116844
535,2026-05-11 16:17:12.196471,2.1966524,-1.4917943,2.0359726,7.295869,1.9781344,-5.5116844
536,2026-05-11 16:17:12.199222,2.1966524,-1.4917943,2.0359726,7.295869,1.9781344,-5.5116844
537,2026-05-11 16:17:12.202693,2.1966524,-1.4917943,2.0359726,7.401243,1.4897476,-5.627749
538,2026-05-11 16:17:12.205535,2.1966524,-1.4917943,2.0359726,7.401243,1.4897476,-5.627749
539,2026-05-11 16:17:12.208149,2.1966524,-1.4917943,2.0359726,7.401243,1.4897476,-5.627749
540,2026-05-11 16:17:12.210732,2.1966524,-1.4917943,2.0359726,7.401243,1.4897476,-5.627749
541,2026-05-11 16:17:12.213458,2.1966524,-1.4917943,2.0359726,7.401243,1.4897476,-5.627749
542,2026-05-11 16:17:12.216226,2.1966524,-1.4917943,2.0359726,7.401243,1.4897476,-5.627749
543,2026-05-11 16:17:12.219694,2.1966524,-1.4917943,2.0359726,7.401243,1.4897476,-5.627749
544,2026-05-11 16:17:12.222419,2.1966524,-1.4917943,2.0359726,7.401243,1.4897476,-5.627749
545,2026-05-11 16:17:12.225126,2.1966524,-1.4917943,2.0359726,7.401243,1.4897476,-5.627749
546,2026-05-11 16:17:12.227715,2.1966524,-1.4917943,2.0359726,7.401243,1.4897476,-5.627749
547,2026-05-11 16:17:12.230366,2.1966524,-1.4917943,2.0359726,7.401243,1.4897476,-5.627749
548,2026-05-11 16:17:12.234007,2.1966524,-1.4917943,2.0359726,7.401243,1.4897476,-5.627749
549,2026-05-11 16:17:12.236756,2.1966524,-1.4917943,2.0359726,7.401243,1.4897476,-5.627749
550,2026-05-11 16:17:12.239348,2.1966524,-1.4917943,2.0359726,7.401243,1.4897476,-5.627749
551,2026-05-11 16:17:12.242003,2.1966524,-1.4917943,2.0359726,7.401243,1.4897476,-5.627749
552,2026-05-11 16:17:12.244580,2.1966524,-1.4917943,2.0359726,7.401243,1.4897476,-5.627749
553,2026-05-11 16:17:12.247309,2.011154,-1.4880747,1.8726094,7.295411,1.3944527,-5.6822686
554,2026-05-11 16:17:12.250379,2.011154,-1.4880747,1.8726094,7.295411,1.3944527,-5.6822686
555,2026-05-11 16:17:12.253031,2.011154,-1.4880747,1.8726094,7.295411,1.3944527,-5.6822686
556,2026-05-11 16:17:12.255632,2.011154,-1.4880747,1.8726094,7.295411,1.3944527,-5.6822686
557,2026-05-11 16:17:12.258254,2.011154,-1.4880747,1.8726094,7.295411,1.3944527,-5.6822686
558,2026-05-11 16:17:12.260827,2.011154,-1.4880747,1.8726094,7.295411,1.3944527,-5.6822686
559,2026-05-11 16:17:12.263596,2.011154,-1.4880747,1.8726094,7.295411,1.3944527,-5.6822686
560,2026-05-11 16:17:12.266706,2.011154,-1.4880747,1.8726094,7.295411,1.3944527,-5.6822686
561,2026-05-11 16:17:12.269486,2.011154,-1.4880747,1.8726094,7.295411,1.3944527,-5.6822686
562,2026-05-11 16:17:12.272082,2.011154,-1.4880747,1.8726094,7.295411,1.3944527,-5.6822686
563,2026-05-11 16:17:12.274815,2.011154,-1.4880747,1.8726094,7.295411,1.3944527,-5.6822686
564,2026-05-11 16:17:12.277367,2.011154,-1.4880747,1.8726094,7.295411,1.3944527,-5.6822686
565,2026-05-11 16:17:12.280154,2.011154,-1.4880747,1.8726094,7.295411,1.3944527,-5.6822686
566,2026-05-11 16:17:12.283126,2.011154,-1.4880747,1.8726094,7.295411,1.3944527,-5.6822686
567,2026-05-11 16:17:12.285829,2.011154,-1.4880747,1.8726094,7.295411,1.3944527,-5.6822686
568,2026-05-11 16:17:12.288449,2.011154,-1.4880747,1.8726094,7.295411,1.3944527,-5.6822686
569,2026-05-11 16:17:12.290988,2.011154,-1.4880747,1.8726094,7.295411,1.3944527,-5.6822686
570,2026-05-11 16:17:12.293842,2.011154,-1.4880747,1.8726094,7.295411,1.3944527,-5.6822686
571,2026-05-11 16:17:12.296430,2.011154,-1.4880747,1.8726094,7.295411,1.3944527,-5.6822686
572,2026-05-11 16:17:12.299497,2.011154,-1.4880747,1.8726094,7.295411,1.3944527,-5.6822686
573,2026-05-11 16:17:12.302163,2.011154,-1.4880747,1.8726094,7.295411,1.3944527,-5.6822686
574,2026-05-11 16:17:12.304801,2.011154,-1.4880747,1.8726094,7.295411,1.3944527,-5.6822686
575,2026-05-11 16:17:12.307599,2.011154,-1.4880747,1.8726094,7.295411,1.3944527,-5.6822686
576,2026-05-11 16:17:12.310216,2.011154,-1.4880747,1.8726094,7.295411,1.3944527,-5.6822686
577,2026-05-11 16:17:12.312853,2.011154,-1.4880747,1.8726094,7.295411,1.3944527,-5.6822686
578,2026-05-11 16:17:12.315903,2.011154,-1.4880747,1.8726094,7.295411,1.3944527,-5.6822686
579,2026-05-11 16:17:12.318903,2.011154,-1.4880747,1.8726094,7.295411,1.3944527,-5.6822686
580,2026-05-11 16:17:12.321517,2.011154,-1.4880747,1.8726094,7.295411,1.3944527,-5.6822686
581,2026-05-11 16:17:12.324105,2.011154,-1.4880747,1.8726094,7.295411,1.3944527,-5.6822686
582,2026-05-11 16:17:12.326759,2.011154,-1.4880747,1.8726094,7.295411,1.3944527,-5.6822686
583,2026-05-11 16:17:12.329317,2.011154,-1.4880747,1.8726094,7.295411,1.3944527,-5.6822686
584,2026-05-11 16:17:12.332306,2.011154,-1.4880747,1.8726094,7.295411,1.3944527,-5.6822686
585,2026-05-11 16:17:12.335035,2.011154,-1.4880747,1.8726094,7.295411,1.3944527,-5.6822686
586,2026-05-11 16:17:12.337600,2.011154,-1.4880747,1.8726094,7.295411,1.3944527,-5.6822686
587,2026-05-11 16:17:12.340297,2.011154,-1.4880747,1.8726094,7.295411,1.3944527,-5.6822686
588,2026-05-11 16:17:12.342870,2.011154,-1.4880747,1.8726094,7.295411,1.3944527,-5.6822686
589,2026-05-11 16:17:12.345521,2.011154,-1.4880747,1.8726094,7.295411,1.3944527,-5.6822686
590,2026-05-11 16:17:12.348129,2.011154,-1.4880747,1.8726094,7.295411,1.3944527,-5.6822686
591,2026-05-11 16:17:12.351351,2.011154,-1.4880747,1.8726094,7.295411,1.3944527,-5.6822686
592,2026-05-11 16:17:12.354172,2.011154,-1.4880747,1.8726094,7.295411,1.3944527,-5.6822686
593,2026-05-11 16:17:12.356831,2.011154,-1.4880747,1.8726094,7.295411,1.3944527,-5.6822686
594,2026-05-11 16:17:12.359440,2.011154,-1.4880747,1.8726094,7.295411,1.3944527,-5.6822686
595,2026-05-11 16:17:12.362094,2.011154,-1.4880747,1.8726094,7.295411,1.3944527,-5.6822686
596,2026-05-11 16:17:12.364681,2.011154,-1.4880747,1.8726094,7.295411,1.3944527,-5.6822686
597,2026-05-11 16:17:12.367898,2.011154,-1.4880747,1.8726094,7.295411,1.3944527,-5.6822686
598,2026-05-11 16:17:12.370616,2.011154,-1.4880747,1.8726094,7.295411,1.3944527,-5.6822686
599,2026-05-11 16:17:12.373209,2.011154,-1.4880747,1.8726094,7.295411,1.3944527,-5.6822686
600,2026-05-11 16:17:12.375822,2.011154,-1.4880747,1.8726094,7.295411,1.3944527,-5.6822686
601,2026-05-11 16:17:12.378421,2.011154,-1.4880747,1.8726094,7.295411,1.3944527,-5.6822686
602,2026-05-11 16:17:12.381023,2.011154,-1.4880747,1.8726094,7.295411,1.3944527,-5.6822686
603,2026-05-11 16:17:12.384348,1.668146,-1.434413,1.6235703,6.6546135,1.625207,-5.5637608
604,2026-05-11 16:17:12.387073,1.668146,-1.434413,1.6235703,6.6546135,1.625207,-5.5637608
605,2026-05-11 16:17:12.389632,1.668146,-1.434413,1.6235703,6.6546135,1.625207,-5.5637608
606,2026-05-11 16:17:12.392418,1.668146,-1.434413,1.6235703,6.6546135,1.625207,-5.5637608
607,2026-05-11 16:17:12.394963,1.668146,-1.434413,1.6235703,6.6546135,1.625207,-5.5637608
608,2026-05-11 16:17:12.397496,1.668146,-1.434413,1.6235703,6.6546135,1.625207,-5.5637608
609,2026-05-11 16:17:12.400583,1.668146,-1.434413,1.6235703,6.6546135,1.625207,-5.5637608
610,2026-05-11 16:17:12.403269,1.668146,-1.434413,1.6235703,6.6546135,1.625207,-5.5637608
611,2026-05-11 16:17:12.405876,1.668146,-1.434413,1.6235703,6.6546135,1.625207,-5.5637608
612,2026-05-11 16:17:12.408436,1.668146,-1.434413,1.6235703,6.6546135,1.625207,-5.5637608
613,2026-05-11 16:17:12.410974,1.668146,-1.434413,1.6235703,6.6546135,1.625207,-5.5637608
614,2026-05-11 16:17:12.413648,1.668146,-1.434413,1.6235703,6.6546135,1.625207,-5.5637608
615,2026-05-11 16:17:12.416627,1.668146,-1.434413,1.6235703,6.6546135,1.625207,-5.5637608
616,2026-05-11 16:17:12.419572,1.668146,-1.434413,1.6235703,6.6546135,1.625207,-5.5637608
617,2026-05-11 16:17:12.422204,1.668146,-1.434413,1.6235703,6.6546135,1.625207,-5.5637608
618,2026-05-11 16:17:12.424794,1.668146,-1.434413,1.6235703,6.6546135,1.625207,-5.5637608
619,2026-05-11 16:17:12.427511,1.668146,-1.434413,1.6235703,6.6546135,1.625207,-5.5637608
620,2026-05-11 16:17:12.430364,1.5862511,-1.4238636,1.5833851,6.3884287,1.8289305,-5.4586916
621,2026-05-11 16:17:12.433505,1.5862511,-1.4238636,1.5833851,6.3884287,1.8289305,-5.4586916
622,2026-05-11 16:17:12.436143,1.5862511,-1.4238636,1.5833851,6.3884287,1.8289305,-5.4586916
623,2026-05-11 16:17:12.438954,1.5862511,-1.4238636,1.5833851,6.3884287,1.8289305,-5.4586916
624,2026-05-11 16:17:12.441566,1.5862511,-1.4238636,1.5833851,6.3884287,1.8289305,-5.4586916
625,2026-05-11 16:17:12.444345,1.5862511,-1.4238636,1.5833851,6.3884287,1.8289305,-5.4586916
626,2026-05-11 16:17:12.447015,1.5862511,-1.4238636,1.5833851,6.3884287,1.8289305,-5.4586916
627,2026-05-11 16:17:12.450047,1.5862511,-1.4238636,1.5833851,6.3884287,1.8289305,-5.4586916
628,2026-05-11 16:17:12.452729,1.5862511,-1.4238636,1.5833851,6.3884287,1.8289305,-5.4586916
629,2026-05-11 16:17:12.455525,1.5862511,-1.4238636,1.5833851,6.3884287,1.8289305,-5.4586916
630,2026-05-11 16:17:12.458140,1.5862511,-1.4238636,1.5833851,6.3884287,1.8289305,-5.4586916
631,2026-05-11 16:17:12.460738,1.5862511,-1.4238636,1.5833851,6.3884287,1.8289305,-5.4586916
632,2026-05-11 16:17:12.463279,1.5862511,-1.4238636,1.5833851,6.3884287,1.8289305,-5.4586916
633,2026-05-11 16:17:12.466552,1.5862511,-1.4238636,1.5833851,6.3884287,1.8289305,-5.4586916
634,2026-05-11 16:17:12.469217,1.5862511,-1.4238636,1.5833851,6.3884287,1.8289305,-5.4586916
635,2026-05-11 16:17:12.471866,1.5862511,-1.4238636,1.5833851,6.3884287,1.8289305,-5.4586916
636,2026-05-11 16:17:12.474591,1.5862511,-1.4238636,1.5833851,6.3884287,1.8289305,-5.4586916
637,2026-05-11 16:17:12.477314,1.5862511,-1.4238636,1.5833851,6.3884287,1.8289305,-5.4586916
638,2026-05-11 16:17:12.479936,1.5862511,-1.4238636,1.5833851,6.3884287,1.8289305,-5.4586916
639,2026-05-11 16:17:12.482962,1.5862511,-1.4238636,1.5833851,6.3884287,1.8289305,-5.4586916
640,2026-05-11 16:17:12.485639,1.5862511,-1.4238636,1.5833851,6.3884287,1.8289305,-5.4586916
641,2026-05-11 16:17:12.488178,1.5862511,-1.4238636,1.5833851,6.3884287,1.8289305,-5.4586916
642,2026-05-11 16:17:12.491035,1.5862511,-1.4238636,1.5833851,6.225633,1.9811887,-5.37256
643,2026-05-11 16:17:12.493866,1.5862511,-1.4238636,1.5833851,6.225633,1.9811887,-5.37256
644,2026-05-11 16:17:12.496515,1.5862511,-1.4238636,1.5833851,6.225633,1.9811887,-5.37256
645,2026-05-11 16:17:12.499590,1.5862511,-1.4238636,1.5833851,6.225633,1.9811887,-5.37256
646,2026-05-11 16:17:12.502333,1.5862511,-1.4238636,1.5833851,6.225633,1.9811887,-5.37256
647,2026-05-11 16:17:12.504941,1.5862511,-1.4238636,1.5833851,6.225633,1.9811887,-5.37256
648,2026-05-11 16:17:12.507636,1.5862511,-1.4238636,1.5833851,6.225633,1.9811887,-5.37256
649,2026-05-11 16:17:12.510201,1.5862511,-1.4238636,1.5833851,6.225633,1.9811887,-5.37256
650,2026-05-11 16:17:12.512773,1.5862511,-1.4238636,1.5833851,6.225633,1.9811887,-5.37256
651,2026-05-11 16:17:12.515644,1.5862511,-1.4238636,1.5833851,6.225633,1.9811887,-5.37256
652,2026-05-11 16:17:12.518665,1.4824646,-1.4151436,1.525028,6.225633,1.9811887,-5.37256
653,2026-05-11 16:17:12.521378,1.4824646,-1.4151436,1.525028,6.225633,1.9811887,-5.37256
654,2026-05-11 16:17:12.524152,1.4824646,-1.4151436,1.525028,6.225633,1.9811887,-5.37256
655,2026-05-11 16:17:12.526782,1.4824646,-1.4151436,1.525028,6.225633,1.9811887,-5.37256
656,2026-05-11 16:17:12.529333,1.4824646,-1.4151436,1.525028,6.225633,1.9811887,-5.37256
657,2026-05-11 16:17:12.532466,1.3051372,-1.4038014,1.3778243,5.8246,2.4958427,-5.0258937
658,2026-05-11 16:17:12.535201,1.3051372,-1.4038014,1.3778243,5.8246,2.4958427,-5.0258937
659,2026-05-11 16:17:12.537796,1.3051372,-1.4038014,1.3778243,5.8246,2.4958427,-5.0258937
660,2026-05-11 16:17:12.540394,1.3051372,-1.4038014,1.3778243,5.8246,2.4958427,-5.0258937
661,2026-05-11 16:17:12.542960,1.3051372,-1.4038014,1.3778243,5.8246,2.4958427,-5.0258937
662,2026-05-11 16:17:12.545543,1.3051372,-1.4038014,1.3778243,5.8246,2.4958427,-5.0258937
663,2026-05-11 16:17:12.548752,1.3051372,-1.4038014,1.3778243,5.8246,2.4958427,-5.0258937
664,2026-05-11 16:17:12.551686,1.3051372,-1.4038014,1.3778243,5.8246,2.4958427,-5.0258937
665,2026-05-11 16:17:12.554328,1.3051372,-1.4038014,1.3778243,5.8246,2.4958427,-5.0258937
666,2026-05-11 16:17:12.557040,1.3051372,-1.4038014,1.3778243,5.8246,2.4958427,-5.0258937
667,2026-05-11 16:17:12.559839,1.3051372,-1.4038014,1.3778243,5.8246,2.4958427,-5.0258937
668,2026-05-11 16:17:12.562443,1.3051372,-1.4038014,1.3778243,5.8246,2.4958427,-5.0258937
669,2026-05-11 16:17:12.565423,1.3051372,-1.4038014,1.3778243,5.8246,2.4958427,-5.0258937
670,2026-05-11 16:17:12.568351,1.3051372,-1.4038014,1.3778243,5.8246,2.4958427,-5.0258937
671,2026-05-11 16:17:12.570979,1.3051372,-1.4038014,1.3778243,5.8246,2.4958427,-5.0258937
672,2026-05-11 16:17:12.573748,1.3051372,-1.4038014,1.3778243,5.8246,2.4958427,-5.0258937
673,2026-05-11 16:17:12.576467,1.3051372,-1.4038014,1.3778243,5.8246,2.4958427,-5.0258937
674,2026-05-11 16:17:12.579174,1.3051372,-1.4038014,1.3778243,5.8246,2.4958427,-5.0258937
675,2026-05-11 16:17:12.582047,1.3051372,-1.4038014,1.3778243,5.8246,2.4958427,-5.0258937
676,2026-05-11 16:17:12.584769,1.3051372,-1.4038014,1.3778243,5.8246,2.4958427,-5.0258937
677,2026-05-11 16:17:12.587396,1.3051372,-1.4038014,1.3778243,5.8246,2.4958427,-5.0258937
678,2026-05-11 16:17:12.590038,1.3051372,-1.4038014,1.3778243,5.8246,2.4958427,-5.0258937
679,2026-05-11 16:17:12.592901,1.3051372,-1.4038014,1.3778243,5.8246,2.4958427,-5.0258937
680,2026-05-11 16:17:12.595507,1.3051372,-1.4038014,1.3778243,5.8246,2.4958427,-5.0258937
681,2026-05-11 16:17:12.598327,1.3051372,-1.4038014,1.3778243,5.6984563,2.6656632,-4.8102584
682,2026-05-11 16:17:12.601282,1.3051372,-1.4038014,1.3778243,5.6984563,2.6656632,-4.8102584
683,2026-05-11 16:17:12.604085,1.1810445,-1.3742266,1.229401,5.6984563,2.6656632,-4.8102584
684,2026-05-11 16:17:12.606696,1.1810445,-1.3742266,1.229401,5.6984563,2.6656632,-4.8102584
685,2026-05-11 16:17:12.609334,1.1810445,-1.3742266,1.229401,5.6984563,2.6656632,-4.8102584
686,2026-05-11 16:17:12.612036,1.1810445,-1.3742266,1.229401,5.6984563,2.6656632,-4.8102584
687,2026-05-11 16:17:12.614802,1.1810445,-1.3742266,1.229401,5.6984563,2.6656632,-4.8102584
688,2026-05-11 16:17:12.618136,1.1810445,-1.3742266,1.229401,5.6984563,2.6656632,-4.8102584
689,2026-05-11 16:17:12.620897,1.1810445,-1.3742266,1.229401,5.6984563,2.6656632,-4.8102584
690,2026-05-11 16:17:12.623501,1.1810445,-1.3742266,1.229401,5.6984563,2.6656632,-4.8102584
691,2026-05-11 16:17:12.626202,1.1810445,-1.3742266,1.229401,5.6984563,2.6656632,-4.8102584
692,2026-05-11 16:17:12.628843,1.1810445,-1.3742266,1.229401,5.6984563,2.6656632,-4.8102584
693,2026-05-11 16:17:12.631446,1.1810445,-1.3742266,1.229401,5.6984563,2.6656632,-4.8102584
694,2026-05-11 16:17:12.634832,1.1810445,-1.3742266,1.229401,5.6984563,2.6656632,-4.8102584
695,2026-05-11 16:17:12.637673,1.0691477,-1.3305044,1.0776238,5.6984563,2.6656632,-4.8102584
696,2026-05-11 16:17:12.640524,1.0691477,-1.3305044,1.0776238,5.6984563,2.6656632,-4.8102584
697,2026-05-11 16:17:12.643261,1.0691477,-1.3305044,1.0776238,5.6984563,2.6656632,-4.8102584
698,2026-05-11 16:17:12.645905,1.0691477,-1.3305044,1.0776238,5.6984563,2.6656632,-4.8102584
699,2026-05-11 16:17:12.648883,1.0691477,-1.3305044,1.0776238,5.6984563,2.6656632,-4.8102584
700,2026-05-11 16:17:12.651790,1.0691477,-1.3305044,1.0776238,5.6984563,2.6656632,-4.8102584
701,2026-05-11 16:17:12.654626,1.0691477,-1.3305044,1.0776238,5.604994,2.7307203,-4.5468225
702,2026-05-11 16:17:12.657365,1.0691477,-1.3305044,1.0776238,5.604994,2.7307203,-4.5468225
703,2026-05-11 16:17:12.659970,1.0691477,-1.3305044,1.0776238,5.604994,2.7307203,-4.5468225
704,2026-05-11 16:17:12.662586,1.0691477,-1.3305044,1.0776238,5.604994,2.7307203,-4.5468225
705,2026-05-11 16:17:12.665328,1.0691477,-1.3305044,1.0776238,5.604994,2.7307203,-4.5468225
706,2026-05-11 16:17:12.668732,1.0691477,-1.3305044,1.0776238,5.604994,2.7307203,-4.5468225
707,2026-05-11 16:17:12.671646,1.0045099,-1.2800747,0.9499944,5.604994,2.7307203,-4.5468225
708,2026-05-11 16:17:12.674351,1.0045099,-1.2800747,0.9499944,5.604994,2.7307203,-4.5468225
709,2026-05-11 16:17:12.677008,1.0045099,-1.2800747,0.9499944,5.604994,2.7307203,-4.5468225
710,2026-05-11 16:17:12.679586,1.0045099,-1.2800747,0.9499944,5.604994,2.7307203,-4.5468225
711,2026-05-11 16:17:12.682611,1.0045099,-1.2800747,0.9499944,5.604994,2.7307203,-4.5468225
712,2026-05-11 16:17:12.685816,1.0045099,-1.2800747,0.9499944,5.604994,2.7307203,-4.5468225
713,2026-05-11 16:17:12.688611,1.0045099,-1.2800747,0.9499944,5.604994,2.7307203,-4.5468225
714,2026-05-11 16:17:12.691222,1.0045099,-1.2800747,0.9499944,5.604994,2.7307203,-4.5468225
715,2026-05-11 16:17:12.693990,1.0045099,-1.2800747,0.9499944,5.604994,2.7307203,-4.5468225
716,2026-05-11 16:17:12.696640,1.0045099,-1.2800747,0.9499944,5.604994,2.7307203,-4.5468225
717,2026-05-11 16:17:12.699853,1.0045099,-1.2800747,0.9499944,5.604994,2.7307203,-4.5468225
718,2026-05-11 16:17:12.702594,1.0045099,-1.2800747,0.9499944,5.604994,2.7307203,-4.5468225
719,2026-05-11 16:17:12.705397,1.0045099,-1.2800747,0.9499944,5.604994,2.7307203,-4.5468225
720,2026-05-11 16:17:12.708101,1.0045099,-1.2800747,0.9499944,5.557041,2.6458101,-4.320497
721,2026-05-11 16:17:12.710779,1.0045099,-1.2800747,0.9499944,5.557041,2.6458101,-4.320497
722,2026-05-11 16:17:12.713427,0.9460917,-1.1685438,0.6535137,5.51031,2.4226916,-4.1686974
723,2026-05-11 16:17:12.716517,0.9460917,-1.1685438,0.6535137,5.51031,2.4226916,-4.1686974
724,2026-05-11 16:17:12.719413,0.9460917,-1.1685438,0.6535137,5.4495287,2.217288,-4.1082215
725,2026-05-11 16:17:12.722031,0.9460917,-1.1685438,0.6535137,5.4495287,2.217288,-4.1082215
726,2026-05-11 16:17:12.724862,0.9460917,-1.1685438,0.6535137,5.4495287,2.217288,-4.1082215
727,2026-05-11 16:17:12.727487,0.9460917,-1.1685438,0.6535137,5.4495287,2.217288,-4.1082215
728,2026-05-11 16:17:12.730200,0.9460917,-1.1685438,0.6535137,5.4495287,2.217288,-4.1082215
729,2026-05-11 16:17:12.733180,0.9460917,-1.1685438,0.6535137,5.4495287,2.217288,-4.1082215
730,2026-05-11 16:17:12.735987,0.9460917,-1.1685438,0.6535137,5.4495287,2.217288,-4.1082215
731,2026-05-11 16:17:12.738594,0.9460917,-1.1685438,0.6535137,5.4495287,2.217288,-4.1082215
732,2026-05-11 16:17:12.741157,0.9460917,-1.1685438,0.6535137,5.4495287,2.217288,-4.1082215
733,2026-05-11 16:17:12.743843,0.9460917,-1.1685438,0.6535137,5.4495287,2.217288,-4.1082215
734,2026-05-11 16:17:12.746387,0.9460917,-1.1685438,0.6535137,5.4495287,2.217288,-4.1082215
735,2026-05-11 16:17:12.749334,0.9460917,-1.1685438,0.6535137,5.4495287,2.217288,-4.1082215
736,2026-05-11 16:17:12.752032,0.9460917,-1.1685438,0.6535137,5.4495287,2.217288,-4.1082215
737,2026-05-11 16:17:12.754629,0.9460917,-1.1685438,0.6535137,5.4495287,2.217288,-4.1082215
738,2026-05-11 16:17:12.757351,0.9460917,-1.1685438,0.6535137,5.4495287,2.217288,-4.1082215
739,2026-05-11 16:17:12.760016,0.9460917,-1.1685438,0.6535137,5.4495287,2.217288,-4.1082215
740,2026-05-11 16:17:12.762783,0.9460917,-1.1685438,0.6535137,5.4495287,2.217288,-4.1082215
741,2026-05-11 16:17:12.765782,0.9460917,-1.1685438,0.6535137,5.4495287,2.217288,-4.1082215
742,2026-05-11 16:17:12.768490,0.9460917,-1.1685438,0.6535137,5.4495287,2.217288,-4.1082215
743,2026-05-11 16:17:12.771073,0.9460917,-1.1685438,0.6535137,5.4495287,2.217288,-4.1082215
744,2026-05-11 16:17:12.773629,0.9460917,-1.1685438,0.6535137,5.4495287,2.217288,-4.1082215
745,2026-05-11 16:17:12.776484,0.9460917,-1.1685438,0.6535137,5.4495287,2.217288,-4.1082215
746,2026-05-11 16:17:12.779185,0.9460917,-1.1685438,0.6535137,5.4495287,2.217288,-4.1082215
747,2026-05-11 16:17:12.782145,0.9460917,-1.1685438,0.6535137,5.4495287,2.217288,-4.1082215
748,2026-05-11 16:17:12.784969,0.9460917,-1.1685438,0.6535137,5.4495287,2.217288,-4.1082215
749,2026-05-11 16:17:12.787745,0.9460917,-1.1685438,0.6535137,5.4495287,2.217288,-4.1082215
750,2026-05-11 16:17:12.790360,0.9460917,-1.1685438,0.6535137,5.4495287,2.217288,-4.1082215
751,2026-05-11 16:17:12.793109,0.9460917,-1.1685438,0.6535137,5.4495287,2.217288,-4.1082215
752,2026-05-11 16:17:12.795690,0.9460917,-1.1685438,0.6535137,5.4495287,2.217288,-4.1082215
753,2026-05-11 16:17:12.798670,0.9460917,-1.1685438,0.6535137,5.4495287,2.217288,-4.1082215
754,2026-05-11 16:17:12.801620,0.9460917,-1.1685438,0.6535137,5.4495287,2.217288,-4.1082215
755,2026-05-11 16:17:12.804175,0.9460917,-1.1685438,0.6535137,5.4495287,2.217288,-4.1082215
756,2026-05-11 16:17:12.806938,0.9460917,-1.1685438,0.6535137,5.4495287,2.217288,-4.1082215
757,2026-05-11 16:17:12.809549,0.9460917,-1.1685438,0.6535137,5.4495287,2.217288,-4.1082215
758,2026-05-11 16:17:12.812362,0.9460917,-1.1685438,0.6535137,5.4495287,2.217288,-4.1082215
759,2026-05-11 16:17:12.815428,0.9460917,-1.1685438,0.6535137,5.4495287,2.217288,-4.1082215
760,2026-05-11 16:17:12.818299,0.9460917,-1.1685438,0.6535137,5.4495287,2.217288,-4.1082215
761,2026-05-11 16:17:12.820908,0.9460917,-1.1685438,0.6535137,5.4495287,2.217288,-4.1082215
762,2026-05-11 16:17:12.823646,0.9460917,-1.1685438,0.6535137,5.4495287,2.217288,-4.1082215
763,2026-05-11 16:17:12.826218,0.9460917,-1.1685438,0.6535137,5.4495287,2.217288,-4.1082215
764,2026-05-11 16:17:12.828890,0.9460917,-1.1685438,0.6535137,5.4495287,2.217288,-4.1082215
765,2026-05-11 16:17:12.831488,0.9460917,-1.1685438,0.6535137,5.4495287,2.217288,-4.1082215
766,2026-05-11 16:17:12.834689,0.9460917,-1.1685438,0.6535137,5.4495287,2.217288,-4.1082215
767,2026-05-11 16:17:12.837317,0.9460917,-1.1685438,0.6535137,5.4495287,2.217288,-4.1082215
768,2026-05-11 16:17:12.839943,0.9460917,-1.1685438,0.6535137,5.4495287,2.217288,-4.1082215
769,2026-05-11 16:17:12.842797,0.9460917,-1.1685438,0.6535137,5.4495287,2.217288,-4.1082215
770,2026-05-11 16:17:12.845398,0.9460917,-1.1685438,0.6535137,5.4495287,2.217288,-4.1082215
771,2026-05-11 16:17:12.848458,0.9460917,-1.1685438,0.6535137,5.4495287,2.217288,-4.1082215
772,2026-05-11 16:17:12.851126,0.9460917,-1.1685438,0.6535137,5.4495287,2.217288,-4.1082215
773,2026-05-11 16:17:12.853893,0.9460917,-1.1685438,0.6535137,5.4495287,2.217288,-4.1082215
774,2026-05-11 16:17:12.856567,0.9460917,-1.1685438,0.6535137,5.4495287,2.217288,-4.1082215
775,2026-05-11 16:17:12.859250,0.9460917,-1.1685438,0.6535137,5.311626,1.945453,-4.127769
776,2026-05-11 16:17:12.861952,0.8970645,-1.1357371,0.5307627,5.311626,1.945453,-4.127769
777,2026-05-11 16:17:12.864650,0.8970645,-1.1357371,0.5307627,5.311626,1.945453,-4.127769
778,2026-05-11 16:17:12.867928,0.8970645,-1.1357371,0.5307627,5.311626,1.945453,-4.127769
779,2026-05-11 16:17:12.870555,0.8970645,-1.1357371,0.5307627,5.311626,1.945453,-4.127769
780,2026-05-11 16:17:12.873171,0.8970645,-1.1357371,0.5307627,5.311626,1.945453,-4.127769
781,2026-05-11 16:17:12.875734,0.8970645,-1.1357371,0.5307627,5.311626,1.945453,-4.127769
782,2026-05-11 16:17:12.878329,0.8970645,-1.1357371,0.5307627,5.311626,1.945453,-4.127769
783,2026-05-11 16:17:12.880944,0.8970645,-1.1357371,0.5307627,5.311626,1.945453,-4.127769
784,2026-05-11 16:17:12.884249,0.8970645,-1.1357371,0.5307627,5.311626,1.945453,-4.127769
785,2026-05-11 16:17:12.887105,0.807913,-1.129822,0.46466127,5.311626,1.945453,-4.127769
786,2026-05-11 16:17:12.889725,0.807913,-1.129822,0.46466127,5.311626,1.945453,-4.127769
787,2026-05-11 16:17:12.892346,0.807913,-1.129822,0.46466127,5.311626,1.945453,-4.127769
788,2026-05-11 16:17:12.894903,0.807913,-1.129822,0.46466127,5.311626,1.945453,-4.127769
789,2026-05-11 16:17:12.915499,0.807913,-1.129822,0.46466127,5.311626,1.945453,-4.127769
790,2026-05-11 16:17:12.925681,0.807913,-1.129822,0.46466127,5.311626,1.945453,-4.127769
791,2026-05-11 16:17:12.929975,0.807913,-1.129822,0.46466127,5.311626,1.945453,-4.127769
792,2026-05-11 16:17:12.935500,0.807913,-1.129822,0.46466127,5.311626,1.945453,-4.127769
793,2026-05-11 16:17:12.938256,0.807913,-1.129822,0.46466127,5.311626,1.945453,-4.127769
794,2026-05-11 16:17:12.941007,0.807913,-1.129822,0.46466127,5.1696,1.8330538,-4.1383066
795,2026-05-11 16:17:12.943670,0.807913,-1.129822,0.46466127,5.1696,1.8330538,-4.1383066
796,2026-05-11 16:17:12.946475,0.807913,-1.129822,0.46466127,5.1696,1.8330538,-4.1383066
797,2026-05-11 16:17:12.949630,0.807913,-1.129822,0.46466127,5.1696,1.8330538,-4.1383066
798,2026-05-11 16:17:12.952502,0.807913,-1.129822,0.46466127,5.1696,1.8330538,-4.1383066
799,2026-05-11 16:17:12.955209,0.807913,-1.129822,0.46466127,5.1696,1.8330538,-4.1383066
800,2026-05-11 16:17:12.957920,0.807913,-1.129822,0.46466127,5.1696,1.8330538,-4.1383066
801,2026-05-11 16:17:12.960525,0.807913,-1.129822,0.46466127,5.1696,1.8330538,-4.1383066
802,2026-05-11 16:17:12.963400,0.807913,-1.129822,0.46466127,5.1696,1.8330538,-4.1383066
803,2026-05-11 16:17:12.966515,0.807913,-1.129822,0.46466127,5.1696,1.8330538,-4.1383066
804,2026-05-11 16:17:12.969234,0.807913,-1.129822,0.46466127,5.1696,1.8330538,-4.1383066
805,2026-05-11 16:17:12.971927,0.807913,-1.129822,0.46466127,5.1696,1.8330538,-4.1383066
806,2026-05-11 16:17:12.974482,0.807913,-1.129822,0.46466127,5.1696,1.8330538,-4.1383066
807,2026-05-11 16:17:12.977397,0.807913,-1.129822,0.46466127,5.1696,1.8330538,-4.1383066
808,2026-05-11 16:17:12.980107,0.807913,-1.129822,0.46466127,5.1696,1.8330538,-4.1383066
809,2026-05-11 16:17:12.983277,0.807913,-1.129822,0.46466127,5.1696,1.8330538,-4.1383066
810,2026-05-11 16:17:12.986118,0.807913,-1.129822,0.46466127,4.955644,1.7811303,-4.099364
811,2026-05-11 16:17:12.988802,0.6943698,-1.1204922,0.38831535,4.955644,1.7811303,-4.099364
812,2026-05-11 16:17:12.991370,0.6943698,-1.1204922,0.38831535,4.955644,1.7811303,-4.099364
813,2026-05-11 16:17:12.993967,0.6943698,-1.1204922,0.38831535,4.955644,1.7811303,-4.099364
814,2026-05-11 16:17:12.996609,0.6066208,-1.1192117,0.34703246,4.799568,1.766775,-4.0527854
815,2026-05-11 16:17:12.999601,0.6066208,-1.1192117,0.34703246,4.799568,1.766775,-4.0527854
816,2026-05-11 16:17:13.002329,0.6066208,-1.1192117,0.34703246,4.799568,1.766775,-4.0527854
817,2026-05-11 16:17:13.004905,0.6066208,-1.1192117,0.34703246,4.799568,1.766775,-4.0527854
818,2026-05-11 16:17:13.007461,0.6066208,-1.1192117,0.34703246,4.799568,1.766775,-4.0527854
819,2026-05-11 16:17:13.010269,0.6066208,-1.1192117,0.34703246,4.799568,1.766775,-4.0527854
820,2026-05-11 16:17:13.012863,0.6066208,-1.1192117,0.34703246,4.799568,1.766775,-4.0527854
821,2026-05-11 16:17:13.016007,0.6066208,-1.1192117,0.34703246,4.799568,1.766775,-4.0527854
822,2026-05-11 16:17:13.018813,0.6066208,-1.1192117,0.34703246,4.799568,1.766775,-4.0527854
823,2026-05-11 16:17:13.021388,0.6066208,-1.1192117,0.34703246,4.799568,1.766775,-4.0527854
824,2026-05-11 16:17:13.023942,0.6066208,-1.1192117,0.34703246,4.799568,1.766775,-4.0527854
825,2026-05-11 16:17:13.026698,0.6066208,-1.1192117,0.34703246,4.799568,1.766775,-4.0527854
826,2026-05-11 16:17:13.029280,0.6066208,-1.1192117,0.34703246,4.799568,1.766775,-4.0527854
827,2026-05-11 16:17:13.032386,0.6066208,-1.1192117,0.34703246,4.799568,1.766775,-4.0527854
828,2026-05-11 16:17:13.035171,0.6066208,-1.1192117,0.34703246,4.799568,1.766775,-4.0527854
829,2026-05-11 16:17:13.037745,0.6066208,-1.1192117,0.34703246,4.799568,1.766775,-4.0527854
830,2026-05-11 16:17:13.040646,0.6066208,-1.1192117,0.34703246,4.799568,1.766775,-4.0527854
831,2026-05-11 16:17:13.043428,0.6066208,-1.1192117,0.34703246,4.799568,1.766775,-4.0527854
832,2026-05-11 16:17:13.046065,0.42709813,-1.1021374,0.32447016,4.799568,1.766775,-4.0527854
833,2026-05-11 16:17:13.049228,0.42709813,-1.1021374,0.32447016,4.799568,1.766775,-4.0527854
834,2026-05-11 16:17:13.052054,0.42709813,-1.1021374,0.32447016,4.799568,1.766775,-4.0527854
835,2026-05-11 16:17:13.054656,0.42709813,-1.1021374,0.32447016,4.799568,1.766775,-4.0527854
836,2026-05-11 16:17:13.057273,0.42709813,-1.1021374,0.32447016,4.799568,1.766775,-4.0527854
837,2026-05-11 16:17:13.059849,0.42709813,-1.1021374,0.32447016,4.799568,1.766775,-4.0527854
838,2026-05-11 16:17:13.062422,0.42709813,-1.1021374,0.32447016,4.799568,1.766775,-4.0527854
839,2026-05-11 16:17:13.065126,0.42709813,-1.1021374,0.32447016,4.5271225,1.7880026,-3.8822014
840,2026-05-11 16:17:13.068669,0.42709813,-1.1021374,0.32447016,4.5271225,1.7880026,-3.8822014
841,2026-05-11 16:17:13.071569,0.42709813,-1.1021374,0.32447016,4.5271225,1.7880026,-3.8822014
842,2026-05-11 16:17:13.074273,0.42709813,-1.1021374,0.32447016,4.5271225,1.7880026,-3.8822014
843,2026-05-11 16:17:13.077002,0.42709813,-1.1021374,0.32447016,4.5271225,1.7880026,-3.8822014
844,2026-05-11 16:17:13.079799,0.42709813,-1.1021374,0.32447016,4.5271225,1.7880026,-3.8822014
845,2026-05-11 16:17:13.082542,0.42709813,-1.1021374,0.32447016,4.5271225,1.7880026,-3.8822014
846,2026-05-11 16:17:13.086025,0.42709813,-1.1021374,0.32447016,4.5271225,1.7880026,-3.8822014
847,2026-05-11 16:17:13.088976,0.42709813,-1.1021374,0.32447016,4.5271225,1.7880026,-3.8822014
848,2026-05-11 16:17:13.091700,0.42709813,-1.1021374,0.32447016,4.5271225,1.7880026,-3.8822014
849,2026-05-11 16:17:13.094299,0.42709813,-1.1021374,0.32447016,4.5271225,1.7880026,-3.8822014
850,2026-05-11 16:17:13.096953,0.42709813,-1.1021374,0.32447016,4.5271225,1.7880026,-3.8822014
851,2026-05-11 16:17:13.099951,0.42709813,-1.1021374,0.32447016,4.5271225,1.7880026,-3.8822014
852,2026-05-11 16:17:13.102834,0.42709813,-1.1021374,0.32447016,4.5271225,1.7880026,-3.8822014
853,2026-05-11 16:17:13.105489,0.42709813,-1.1021374,0.32447016,4.5271225,1.7880026,-3.8822014
854,2026-05-11 16:17:13.108108,0.42709813,-1.1021374,0.32447016,4.5271225,1.7880026,-3.8822014
855,2026-05-11 16:17:13.110829,0.42709813,-1.1021374,0.32447016,4.5271225,1.7880026,-3.8822014
856,2026-05-11 16:17:13.113402,0.42709813,-1.1021374,0.32447016,4.5271225,1.7880026,-3.8822014
857,2026-05-11 16:17:13.116480,0.42709813,-1.1021374,0.32447016,4.5271225,1.7880026,-3.8822014
858,2026-05-11 16:17:13.119192,0.42709813,-1.1021374,0.32447016,4.5271225,1.7880026,-3.8822014
859,2026-05-11 16:17:13.121809,0.2816018,-1.0551835,0.35471582,4.5271225,1.7880026,-3.8822014
860,2026-05-11 16:17:13.124549,0.2816018,-1.0551835,0.35471582,4.288732,1.8376354,-3.5575266
861,2026-05-11 16:17:13.127134,0.2816018,-1.0551835,0.35471582,4.288732,1.8376354,-3.5575266
862,2026-05-11 16:17:13.129897,0.2816018,-1.0551835,0.35471582,4.288732,1.8376354,-3.5575266
863,2026-05-11 16:17:13.132931,0.2816018,-1.0551835,0.35471582,4.288732,1.8376354,-3.5575266
864,2026-05-11 16:17:13.135908,0.2816018,-1.0551835,0.35471582,4.288732,1.8376354,-3.5575266
865,2026-05-11 16:17:13.138576,0.2816018,-1.0551835,0.35471582,4.288732,1.8376354,-3.5575266
866,2026-05-11 16:17:13.141229,0.2816018,-1.0551835,0.35471582,4.288732,1.8376354,-3.5575266
867,2026-05-11 16:17:13.143986,0.2816018,-1.0551835,0.35471582,4.288732,1.8376354,-3.5575266
868,2026-05-11 16:17:13.146696,0.2816018,-1.0551835,0.35471582,4.288732,1.8376354,-3.5575266
869,2026-05-11 16:17:13.149755,0.2816018,-1.0551835,0.35471582,4.288732,1.8376354,-3.5575266
870,2026-05-11 16:17:13.152635,0.2816018,-1.0551835,0.35471582,4.288732,1.8376354,-3.5575266
871,2026-05-11 16:17:13.155282,0.2816018,-1.0551835,0.35471582,4.288732,1.8376354,-3.5575266
872,2026-05-11 16:17:13.157854,0.2816018,-1.0551835,0.35471582,4.288732,1.8376354,-3.5575266
873,2026-05-11 16:17:13.160753,0.2816018,-1.0551835,0.35471582,4.288732,1.8376354,-3.5575266
874,2026-05-11 16:17:13.163508,0.2816018,-1.0551835,0.35471582,4.288732,1.8376354,-3.5575266
875,2026-05-11 16:17:13.166594,0.2816018,-1.0551835,0.35471582,4.288732,1.8376354,-3.5575266
876,2026-05-11 16:17:13.169511,0.2816018,-1.0551835,0.35471582,4.288732,1.8376354,-3.5575266
877,2026-05-11 16:17:13.172175,0.2816018,-1.0551835,0.35471582,4.288732,1.8376354,-3.5575266
878,2026-05-11 16:17:13.174769,0.2816018,-1.0551835,0.35471582,4.288732,1.8376354,-3.5575266
879,2026-05-11 16:17:13.177607,0.2816018,-1.0551835,0.35471582,4.288732,1.8376354,-3.5575266
880,2026-05-11 16:17:13.180226,0.2816018,-1.0551835,0.35471582,4.288732,1.8376354,-3.5575266
881,2026-05-11 16:17:13.183434,0.2816018,-1.0551835,0.35471582,4.288732,1.8376354,-3.5575266
882,2026-05-11 16:17:13.186201,0.2816018,-1.0551835,0.35471582,4.288732,1.8376354,-3.5575266
883,2026-05-11 16:17:13.189018,0.2816018,-1.0551835,0.35471582,4.288732,1.8376354,-3.5575266
884,2026-05-11 16:17:13.191761,0.25281963,-1.0395119,0.3497765,4.1636577,1.982105,-3.122285
885,2026-05-11 16:17:13.194354,0.25281963,-1.0395119,0.3497765,4.1636577,1.982105,-3.122285
886,2026-05-11 16:17:13.197102,0.2426361,-1.0245719,0.31129867,4.1636577,1.982105,-3.122285
887,2026-05-11 16:17:13.200043,0.2426361,-1.0245719,0.31129867,4.1636577,1.982105,-3.122285
888,2026-05-11 16:17:13.202877,0.2426361,-1.0245719,0.31129867,4.1636577,1.982105,-3.122285
889,2026-05-11 16:17:13.205614,0.2426361,-1.0245719,0.31129867,4.1636577,1.982105,-3.122285
890,2026-05-11 16:17:13.208265,0.2426361,-1.0245719,0.31129867,4.1636577,1.982105,-3.122285
891,2026-05-11 16:17:13.210897,0.2426361,-1.0245719,0.31129867,4.1636577,1.982105,-3.122285
892,2026-05-11 16:17:13.213468,0.2426361,-1.0245719,0.31129867,4.1636577,1.982105,-3.122285
893,2026-05-11 16:17:13.216483,0.2426361,-1.0245719,0.31129867,4.1636577,1.982105,-3.122285
894,2026-05-11 16:17:13.219116,0.2426361,-1.0245719,0.31129867,4.1636577,1.982105,-3.122285
895,2026-05-11 16:17:13.221674,0.2426361,-1.0245719,0.31129867,4.1636577,1.982105,-3.122285
896,2026-05-11 16:17:13.224222,0.2426361,-1.0245719,0.31129867,4.1636577,1.982105,-3.122285
897,2026-05-11 16:17:13.226774,0.2426361,-1.0245719,0.31129867,4.1636577,1.982105,-3.122285
898,2026-05-11 16:17:13.229339,0.2426361,-1.0245719,0.31129867,4.1636577,1.982105,-3.122285
899,2026-05-11 16:17:13.232347,0.2426361,-1.0245719,0.31129867,4.1636577,1.982105,-3.122285
900,2026-05-11 16:17:13.235209,0.19397473,-1.0117663,0.24440451,4.1636577,1.982105,-3.122285
901,2026-05-11 16:17:13.237823,0.19397473,-1.0117663,0.24440451,4.1636577,1.982105,-3.122285
902,2026-05-11 16:17:13.240480,0.19397473,-1.0117663,0.24440451,4.1636577,1.982105,-3.122285
903,2026-05-11 16:17:13.243060,0.19397473,-1.0117663,0.24440451,4.1636577,1.982105,-3.122285
904,2026-05-11 16:17:13.245829,0.19397473,-1.0117663,0.24440451,4.1636577,1.982105,-3.122285
905,2026-05-11 16:17:13.248898,0.19397473,-1.0117663,0.24440451,4.2137485,1.9329304,-2.9837713
906,2026-05-11 16:17:13.251842,0.19397473,-1.0117663,0.24440451,4.2137485,1.9329304,-2.9837713
907,2026-05-11 16:17:13.254442,0.19397473,-1.0117663,0.24440451,4.2137485,1.9329304,-2.9837713
908,2026-05-11 16:17:13.257170,0.19397473,-1.0117663,0.24440451,4.2137485,1.9329304,-2.9837713
909,2026-05-11 16:17:13.259776,0.19397473,-1.0117663,0.24440451,4.2137485,1.9329304,-2.9837713
910,2026-05-11 16:17:13.262337,0.19397473,-1.0117663,0.24440451,4.2137485,1.9329304,-2.9837713
911,2026-05-11 16:17:13.265365,0.19397473,-1.0117663,0.24440451,4.2137485,1.9329304,-2.9837713
912,2026-05-11 16:17:13.268075,0.19397473,-1.0117663,0.24440451,4.2137485,1.9329304,-2.9837713
913,2026-05-11 16:17:13.270909,0.19397473,-1.0117663,0.24440451,4.2137485,1.9329304,-2.9837713
914,2026-05-11 16:17:13.273571,0.19397473,-1.0117663,0.24440451,4.2137485,1.9329304,-2.9837713
915,2026-05-11 16:17:13.276359,0.19397473,-1.0117663,0.24440451,4.2137485,1.9329304,-2.9837713
916,2026-05-11 16:17:13.278950,0.19397473,-1.0117663,0.24440451,4.2137485,1.9329304,-2.9837713
917,2026-05-11 16:17:13.282081,0.19397473,-1.0117663,0.24440451,4.2137485,1.9329304,-2.9837713
918,2026-05-11 16:17:13.285007,0.19397473,-1.0117663,0.24440451,4.2137485,1.9329304,-2.9837713
919,2026-05-11 16:17:13.287714,0.19397473,-1.0117663,0.24440451,4.2137485,1.9329304,-2.9837713
920,2026-05-11 16:17:13.290411,0.19397473,-1.0117663,0.24440451,4.2137485,1.9329304,-2.9837713
921,2026-05-11 16:17:13.293216,0.19397473,-1.0117663,0.24440451,4.2137485,1.9329304,-2.9837713
922,2026-05-11 16:17:13.295843,0.19397473,-1.0117663,0.24440451,4.2137485,1.9329304,-2.9837713
923,2026-05-11 16:17:13.298778,0.19397473,-1.0117663,0.24440451,4.2137485,1.9329304,-2.9837713
924,2026-05-11 16:17:13.301797,0.19397473,-1.0117663,0.24440451,4.2137485,1.9329304,-2.9837713
925,2026-05-11 16:17:13.304601,0.19397473,-1.0117663,0.24440451,4.2137485,1.9329304,-2.9837713
926,2026-05-11 16:17:13.307260,0.19397473,-1.0117663,0.24440451,4.2137485,1.9329304,-2.9837713
927,2026-05-11 16:17:13.309833,0.19397473,-1.0117663,0.24440451,4.2137485,1.9329304,-2.9837713
928,2026-05-11 16:17:13.312608,0.19397473,-1.0117663,0.24440451,4.2137485,1.9329304,-2.9837713
929,2026-05-11 16:17:13.315695,0.19397473,-1.0117663,0.24440451,4.2137485,1.9329304,-2.9837713
930,2026-05-11 16:17:13.318600,0.16781467,-1.0092052,0.17519315,4.2137485,1.9329304,-2.9837713
931,2026-05-11 16:17:13.321386,0.16781467,-1.0092052,0.17519315,4.333173,1.7081319,-2.8469374
932,2026-05-11 16:17:13.324007,0.16781467,-1.0092052,0.17519315,4.333173,1.7081319,-2.8469374
933,2026-05-11 16:17:13.326593,0.16781467,-1.0092052,0.17519315,4.333173,1.7081319,-2.8469374
934,2026-05-11 16:17:13.329467,0.16781467,-1.0092052,0.17519315,4.333173,1.7081319,-2.8469374
935,2026-05-11 16:17:13.332465,0.16781467,-1.0092052,0.17519315,4.333173,1.7081319,-2.8469374
936,2026-05-11 16:17:13.335285,0.16781467,-1.0092052,0.17519315,4.333173,1.7081319,-2.8469374
937,2026-05-11 16:17:13.337850,0.16781467,-1.0092052,0.17519315,4.333173,1.7081319,-2.8469374
938,2026-05-11 16:17:13.340496,0.16781467,-1.0092052,0.17519315,4.333173,1.7081319,-2.8469374
939,2026-05-11 16:17:13.343034,0.16781467,-1.0092052,0.17519315,4.333173,1.7081319,-2.8469374
940,2026-05-11 16:17:13.345792,0.16781467,-1.0092052,0.17519315,4.333173,1.7081319,-2.8469374
941,2026-05-11 16:17:13.348824,0.014513042,-1.039024,-0.0041465834,4.333173,1.7081319,-2.8469374
942,2026-05-11 16:17:13.351897,0.014513042,-1.039024,-0.0041465834,4.333173,1.7081319,-2.8469374
943,2026-05-11 16:17:13.354613,0.014513042,-1.039024,-0.0041465834,4.333173,1.7081319,-2.8469374
944,2026-05-11 16:17:13.357207,0.014513042,-1.039024,-0.0041465834,4.333173,1.7081319,-2.8469374
945,2026-05-11 16:17:13.359866,0.014513042,-1.039024,-0.0041465834,4.333173,1.7081319,-2.8469374
946,2026-05-11 16:17:13.362428,0.014513042,-1.039024,-0.0041465834,4.333173,1.7081319,-2.8469374
947,2026-05-11 16:17:13.365225,0.014513042,-1.039024,-0.0041465834,4.333173,1.7081319,-2.8469374
948,2026-05-11 16:17:13.368052,0.014513042,-1.039024,-0.0041465834,4.333173,1.7081319,-2.8469374
949,2026-05-11 16:17:13.370661,0.014513042,-1.039024,-0.0041465834,4.333173,1.7081319,-2.8469374
950,2026-05-11 16:17:13.373480,0.014513042,-1.039024,-0.0041465834,4.6292896,0.9970848,-2.6555839
951,2026-05-11 16:17:13.376103,0.014513042,-1.039024,-0.0041465834,4.6292896,0.9970848,-2.6555839
952,2026-05-11 16:17:13.378688,0.014513042,-1.039024,-0.0041465834,4.6292896,0.9970848,-2.6555839
953,2026-05-11 16:17:13.381258,0.014513042,-1.039024,-0.0041465834,4.6292896,0.9970848,-2.6555839
954,2026-05-11 16:17:13.384640,0.014513042,-1.039024,-0.0041465834,4.6292896,0.9970848,-2.6555839
955,2026-05-11 16:17:13.387317,0.014513042,-1.039024,-0.0041465834,4.6292896,0.9970848,-2.6555839
956,2026-05-11 16:17:13.390209,0.014513042,-1.039024,-0.0041465834,4.6292896,0.9970848,-2.6555839
957,2026-05-11 16:17:13.393062,-0.102262065,-1.1302489,-0.17537609,4.6292896,0.9970848,-2.6555839
958,2026-05-11 16:17:13.395679,-0.102262065,-1.1302489,-0.17537609,4.6292896,0.9970848,-2.6555839
959,2026-05-11 16:17:13.398754,-0.102262065,-1.1302489,-0.17537609,4.6292896,0.9970848,-2.6555839
960,2026-05-11 16:17:13.401794,-0.102262065,-1.1302489,-0.17537609,4.9640436,0.3145956,-2.4394903
961,2026-05-11 16:17:13.404458,-0.14793546,-1.1584822,-0.2154394,4.9640436,0.3145956,-2.4394903
962,2026-05-11 16:17:13.407253,-0.14793546,-1.1584822,-0.2154394,4.9640436,0.3145956,-2.4394903
963,2026-05-11 16:17:13.409883,-0.14793546,-1.1584822,-0.2154394,4.9640436,0.3145956,-2.4394903
964,2026-05-11 16:17:13.412753,-0.14793546,-1.1584822,-0.2154394,4.9640436,0.3145956,-2.4394903
965,2026-05-11 16:17:13.415916,-0.14793546,-1.1584822,-0.2154394,4.9640436,0.3145956,-2.4394903
966,2026-05-11 16:17:13.418724,-0.14793546,-1.1584822,-0.2154394,4.9640436,0.3145956,-2.4394903
967,2026-05-11 16:17:13.421488,-0.14793546,-1.1584822,-0.2154394,4.9640436,0.3145956,-2.4394903
968,2026-05-11 16:17:13.424221,-0.2830043,-1.2365966,-0.4494165,5.1150804,0.1600467,-2.3081543
969,2026-05-11 16:17:13.426835,-0.2830043,-1.2365966,-0.4494165,5.1150804,0.1600467,-2.3081543
970,2026-05-11 16:17:13.429711,-0.2830043,-1.2365966,-0.4494165,5.1150804,0.1600467,-2.3081543
971,2026-05-11 16:17:13.432872,-0.2830043,-1.2365966,-0.4494165,5.1150804,0.1600467,-2.3081543
972,2026-05-11 16:17:13.435773,-0.2830043,-1.2365966,-0.4494165,5.1150804,0.1600467,-2.3081543
973,2026-05-11 16:17:13.438526,-0.2830043,-1.2365966,-0.4494165,5.1150804,0.1600467,-2.3081543
974,2026-05-11 16:17:13.441255,-0.2830043,-1.2365966,-0.4494165,5.1150804,0.1600467,-2.3081543
975,2026-05-11 16:17:13.443846,-0.2830043,-1.2365966,-0.4494165,5.1150804,0.1600467,-2.3081543
976,2026-05-11 16:17:13.446639,-0.2830043,-1.2365966,-0.4494165,5.1150804,0.1600467,-2.3081543
977,2026-05-11 16:17:13.449720,-0.2830043,-1.2365966,-0.4494165,5.1150804,0.1600467,-2.3081543
978,2026-05-11 16:17:13.452556,-0.2830043,-1.2365966,-0.4494165,5.1150804,0.1600467,-2.3081543
979,2026-05-11 16:17:13.455178,-0.2830043,-1.2365966,-0.4494165,5.1150804,0.1600467,-2.3081543
980,2026-05-11 16:17:13.458003,-0.2830043,-1.2365966,-0.4494165,5.1150804,0.1600467,-2.3081543
981,2026-05-11 16:17:13.460801,-0.2830043,-1.2365966,-0.4494165,5.1150804,0.1600467,-2.3081543
982,2026-05-11 16:17:13.463548,-0.2830043,-1.2365966,-0.4494165,5.1150804,0.1600467,-2.3081543
983,2026-05-11 16:17:13.466491,-0.2830043,-1.2365966,-0.4494165,5.1150804,0.1600467,-2.3081543
984,2026-05-11 16:17:13.469317,-0.2830043,-1.2365966,-0.4494165,5.1150804,0.1600467,-2.3081543
985,2026-05-11 16:17:13.472028,-0.2830043,-1.2365966,-0.4494165,5.176625,0.16050485,-2.118939
986,2026-05-11 16:17:13.474677,-0.7104073,-1.6228997,-1.1769589,5.18762,0.013286319,-1.7773124
987,2026-05-11 16:17:13.477309,-0.9691419,-1.7389429,-1.3828856,5.2253413,-0.31688634,-1.381319
988,2026-05-11 16:17:13.480134,-0.9691419,-1.7389429,-1.3828856,5.2253413,-0.31688634,-1.381319
989,2026-05-11 16:17:13.483140,-0.9691419,-1.7389429,-1.3828856,5.2253413,-0.31688634,-1.381319
990,2026-05-11 16:17:13.485892,-0.9691419,-1.7389429,-1.3828856,5.2253413,-0.31688634,-1.381319
991,2026-05-11 16:17:13.488533,-0.9691419,-1.7389429,-1.3828856,5.2253413,-0.31688634,-1.381319
992,2026-05-11 16:17:13.491101,-0.9691419,-1.7389429,-1.3828856,5.2253413,-0.31688634,-1.381319
993,2026-05-11 16:17:13.494001,-0.9691419,-1.7389429,-1.3828856,5.2253413,-0.31688634,-1.381319
994,2026-05-11 16:17:13.496645,-0.9691419,-1.7389429,-1.3828856,5.2253413,-0.31688634,-1.381319
995,2026-05-11 16:17:13.499915,-0.9691419,-1.7389429,-1.3828856,5.2253413,-0.31688634,-1.381319
996,2026-05-11 16:17:13.502757,-0.9691419,-1.7389429,-1.3828856,5.2253413,-0.31688634,-1.381319
997,2026-05-11 16:17:13.505463,-0.9691419,-1.7389429,-1.3828856,5.2253413,-0.31688634,-1.381319
998,2026-05-11 16:17:13.508049,-0.9691419,-1.7389429,-1.3828856,5.2253413,-0.31688634,-1.381319
999,2026-05-11 16:17:13.510792,-0.9691419,-1.7389429,-1.3828856,5.2253413,-0.31688634,-1.381319
1000,2026-05-11 16:17:13.513357,-0.9691419,-1.7389429,-1.3828856,5.2253413,-0.31688634,-1.381319
1001,2026-05-11 16:17:13.516309,-0.9691419,-1.7389429,-1.3828856,5.2253413,-0.31688634,-1.381319
1002,2026-05-11 16:17:13.518952,-0.9691419,-1.7389429,-1.3828856,5.2253413,-0.31688634,-1.381319
1003,2026-05-11 16:17:13.521730,-0.9691419,-1.7389429,-1.3828856,5.2253413,-0.31688634,-1.381319
1004,2026-05-11 16:17:13.524472,-1.1222606,-1.8659626,-1.6102768,5.3166656,-0.947452,-0.8344419
1005,2026-05-11 16:17:13.527174,-1.1222606,-1.8659626,-1.6102768,5.3166656,-0.947452,-0.8344419
1006,2026-05-11 16:17:13.529971,-1.1222606,-1.8659626,-1.6102768,5.3166656,-0.947452,-0.8344419
1007,2026-05-11 16:17:13.533168,-1.1222606,-1.8659626,-1.6102768,5.3166656,-0.947452,-0.8344419
1008,2026-05-11 16:17:13.535898,-1.1222606,-1.8659626,-1.6102768,5.3166656,-0.947452,-0.8344419
1009,2026-05-11 16:17:13.538488,-1.1222606,-1.8659626,-1.6102768,5.3166656,-0.947452,-0.8344419
1010,2026-05-11 16:17:13.541202,-1.1222606,-1.8659626,-1.6102768,5.3166656,-0.947452,-0.8344419
1011,2026-05-11 16:17:13.543790,-1.1222606,-1.8659626,-1.6102768,5.3166656,-0.947452,-0.8344419
1012,2026-05-11 16:17:13.546362,-1.1222606,-1.8659626,-1.6102768,5.3166656,-0.947452,-0.8344419
1013,2026-05-11 16:17:13.549475,-1.1222606,-1.8659626,-1.6102768,5.3166656,-0.947452,-0.8344419
1014,2026-05-11 16:17:13.552184,-1.1222606,-1.8659626,-1.6102768,5.3166656,-0.947452,-0.8344419
1015,2026-05-11 16:17:13.554804,-1.1222606,-1.8659626,-1.6102768,5.3166656,-0.947452,-0.8344419
1016,2026-05-11 16:17:13.557384,-1.1222606,-1.8659626,-1.6102768,5.3166656,-0.947452,-0.8344419
1017,2026-05-11 16:17:13.560261,-1.1726295,-1.9829205,-1.7612003,5.526956,-2.3985624,0.027641652
1018,2026-05-11 16:17:13.563025,-1.1726295,-1.9829205,-1.7612003,5.526956,-2.3985624,0.027641652
1019,2026-05-11 16:17:13.566063,-1.1726295,-1.9829205,-1.7612003,5.526956,-2.3985624,0.027641652
1020,2026-05-11 16:17:13.568774,-1.1726295,-1.9829205,-1.7612003,5.526956,-2.3985624,0.027641652
1021,2026-05-11 16:17:13.571365,-1.1726295,-1.9829205,-1.7612003,5.526956,-2.3985624,0.027641652
1022,2026-05-11 16:17:13.574193,-1.1726295,-1.9829205,-1.7612003,5.526956,-2.3985624,0.027641652
1023,2026-05-11 16:17:13.576802,-1.1726295,-1.9829205,-1.7612003,5.526956,-2.3985624,0.027641652
1024,2026-05-11 16:17:13.579369,-1.1726295,-1.9829205,-1.7612003,5.526956,-2.3985624,0.027641652
1025,2026-05-11 16:17:13.582471,-1.1726295,-1.9829205,-1.7612003,5.526956,-2.3985624,0.027641652
1026,2026-05-11 16:17:13.585216,-1.1726295,-1.9829205,-1.7612003,5.526956,-2.3985624,0.027641652
1027,2026-05-11 16:17:13.587913,-1.2364745,-2.0859754,-1.9827987,5.526956,-2.3985624,0.027641652
1028,2026-05-11 16:17:13.590585,-1.2364745,-2.0859754,-1.9827987,5.526956,-2.3985624,0.027641652
1029,2026-05-11 16:17:13.593171,-1.2364745,-2.0859754,-1.9827987,5.526956,-2.3985624,0.027641652
1030,2026-05-11 16:17:13.595881,-1.2364745,-2.0859754,-1.9827987,5.526956,-2.3985624,0.027641652
1031,2026-05-11 16:17:13.599058,-1.2364745,-2.0859754,-1.9827987,5.526956,-2.3985624,0.027641652
1032,2026-05-11 16:17:13.601973,-1.2364745,-2.0859754,-1.9827987,5.526956,-2.3985624,0.027641652
1033,2026-05-11 16:17:13.604542,-1.2364745,-2.0859754,-1.9827987,5.526956,-2.3985624,0.027641652
1034,2026-05-11 16:17:13.607451,-1.2364745,-2.0859754,-1.9827987,5.526956,-2.3985624,0.027641652
1035,2026-05-11 16:17:13.610137,-1.2364745,-2.0859754,-1.9827987,5.526956,-2.3985624,0.027641652
1036,2026-05-11 16:17:13.612888,-1.2364745,-2.0859754,-1.9827987,5.526956,-2.3985624,0.027641652
1037,2026-05-11 16:17:13.615830,-1.2364745,-2.0859754,-1.9827987,5.526956,-2.3985624,0.027641652
1038,2026-05-11 16:17:13.618730,-1.2364745,-2.0859754,-1.9827987,5.526956,-2.3985624,0.027641652
1039,2026-05-11 16:17:13.621347,-1.2364745,-2.0859754,-1.9827987,5.526956,-2.3985624,0.027641652
1040,2026-05-11 16:17:13.624129,-1.2364745,-2.0859754,-1.9827987,5.526956,-2.3985624,0.027641652
1041,2026-05-11 16:17:13.626872,-1.2364745,-2.0859754,-1.9827987,5.526956,-2.3985624,0.027641652
1042,2026-05-11 16:17:13.629531,-1.2649518,-2.0931098,-2.1187212,5.526956,-2.3985624,0.027641652
1043,2026-05-11 16:17:13.632760,-1.2055582,-2.0789018,-2.2786694,5.3995905,-3.063642,0.32055154
1044,2026-05-11 16:17:13.635541,-1.2055582,-2.0789018,-2.2786694,5.3995905,-3.063642,0.32055154
1045,2026-05-11 16:17:13.638169,-1.2055582,-2.0789018,-2.2786694,5.3995905,-3.063642,0.32055154
1046,2026-05-11 16:17:13.641029,-1.2055582,-2.0789018,-2.2786694,5.3995905,-3.063642,0.32055154
1047,2026-05-11 16:17:13.643789,-1.2055582,-2.0789018,-2.2786694,4.8123965,-3.6409097,0.60918534
1048,2026-05-11 16:17:13.646522,-1.2055582,-2.0789018,-2.2786694,4.8123965,-3.6409097,0.60918534
1049,2026-05-11 16:17:13.649733,-1.2055582,-2.0789018,-2.2786694,4.8123965,-3.6409097,0.60918534
1050,2026-05-11 16:17:13.652600,-1.2055582,-2.0789018,-2.2786694,4.8123965,-3.6409097,0.60918534
1051,2026-05-11 16:17:13.655292,-1.2055582,-2.0789018,-2.2786694,4.8123965,-3.6409097,0.60918534
1052,2026-05-11 16:17:13.657977,-1.2055582,-2.0789018,-2.2786694,4.8123965,-3.6409097,0.60918534
1053,2026-05-11 16:17:13.660608,-1.2055582,-2.0789018,-2.2786694,4.8123965,-3.6409097,0.60918534
1054,2026-05-11 16:17:13.663285,-1.1202483,-2.0355456,-2.2562902,3.7024543,-3.6483927,0.8593347
1055,2026-05-11 16:17:13.666480,-1.1202483,-2.0355456,-2.2562902,3.7024543,-3.6483927,0.8593347
1056,2026-05-11 16:17:13.669159,-1.1202483,-2.0355456,-2.2562902,3.7024543,-3.6483927,0.8593347
1057,2026-05-11 16:17:13.671814,-1.1202483,-2.0355456,-2.2562902,3.7024543,-3.6483927,0.8593347
1058,2026-05-11 16:17:13.674602,-1.1202483,-2.0355456,-2.2562902,2.1299343,-2.9721649,1.1527027
1059,2026-05-11 16:17:13.677177,-1.1202483,-2.0355456,-2.2562902,2.1299343,-2.9721649,1.1527027
1060,2026-05-11 16:17:13.679884,-1.0610375,-1.9403572,-2.1326244,2.1299343,-2.9721649,1.1527027
1061,2026-05-11 16:17:13.682896,-1.0610375,-1.9403572,-2.1326244,2.1299343,-2.9721649,1.1527027
1062,2026-05-11 16:17:13.685675,-1.0610375,-1.9403572,-2.1326244,2.1299343,-2.9721649,1.1527027
1063,2026-05-11 16:17:13.688207,-1.0610375,-1.9403572,-2.1326244,2.1299343,-2.9721649,1.1527027
1064,2026-05-11 16:17:13.690778,-1.0610375,-1.9403572,-2.1326244,2.1299343,-2.9721649,1.1527027
1065,2026-05-11 16:17:13.693456,-1.0610375,-1.9403572,-2.1326244,2.1299343,-2.9721649,1.1527027
1066,2026-05-11 16:17:13.695981,-1.0610375,-1.9403572,-2.1326244,2.1299343,-2.9721649,1.1527027
1067,2026-05-11 16:17:13.699119,-1.0610375,-1.9403572,-2.1326244,2.1299343,-2.9721649,1.1527027
1068,2026-05-11 16:17:13.701953,-1.0610375,-1.9403572,-2.1326244,2.1299343,-2.9721649,1.1527027
1069,2026-05-11 16:17:13.704550,-1.0610375,-1.9403572,-2.1326244,2.1299343,-2.9721649,1.1527027
1070,2026-05-11 16:17:13.707644,-1.0610375,-1.9403572,-2.1326244,2.1299343,-2.9721649,1.1527027
1071,2026-05-11 16:17:13.710307,-0.9639587,-1.8699262,-1.9090749,2.1299343,-2.9721649,1.1527027
1072,2026-05-11 16:17:13.713043,-0.9639587,-1.8699262,-1.9090749,2.1299343,-2.9721649,1.1527027
1073,2026-05-11 16:17:13.716110,-0.9639587,-1.8699262,-1.9090749,2.1299343,-2.9721649,1.1527027
1074,2026-05-11 16:17:13.718889,-0.9639587,-1.8699262,-1.9090749,2.1299343,-2.9721649,1.1527027
1075,2026-05-11 16:17:13.721474,-0.9639587,-1.8699262,-1.9090749,2.1299343,-2.9721649,1.1527027
1076,2026-05-11 16:17:13.724323,-0.9639587,-1.8699262,-1.9090749,2.1299343,-2.9721649,1.1527027
1077,2026-05-11 16:17:13.726994,-0.9639587,-1.8699262,-1.9090749,0.34116822,-1.8332067,1.4753923
1078,2026-05-11 16:17:13.729556,-0.9639587,-1.8699262,-1.9090749,0.34116822,-1.8332067,1.4753923
1079,2026-05-11 16:17:13.732570,-0.9639587,-1.8699262,-1.9090749,0.34116822,-1.8332067,1.4753923
1080,2026-05-11 16:17:13.735327,-0.9639587,-1.8699262,-1.9090749,0.34116822,-1.8332067,1.4753923
1081,2026-05-11 16:17:13.738027,-0.9639587,-1.8699262,-1.9090749,0.34116822,-1.8332067,1.4753923
1082,2026-05-11 16:17:13.740807,-0.8756608,-1.8556571,-1.6939404,-1.3790283,-0.64461553,1.7252362
1083,2026-05-11 16:17:13.743544,-0.8756608,-1.8556571,-1.6939404,-1.3790283,-0.64461553,1.7252362
1084,2026-05-11 16:17:13.746150,-0.8756608,-1.8556571,-1.6939404,-1.3790283,-0.64461553,1.7252362
1085,2026-05-11 16:17:13.749416,-0.8756608,-1.8556571,-1.6939404,-1.3790283,-0.64461553,1.7252362
1086,2026-05-11 16:17:13.752244,-0.8756608,-1.8556571,-1.6939404,-1.3790283,-0.64461553,1.7252362
1087,2026-05-11 16:17:13.754877,-0.8756608,-1.8556571,-1.6939404,-1.3790283,-0.64461553,1.7252362
1088,2026-05-11 16:17:13.757454,-0.8756608,-1.8556571,-1.6939404,-1.3790283,-0.64461553,1.7252362
1089,2026-05-11 16:17:13.760311,-0.8756608,-1.8556571,-1.6939404,-1.3790283,-0.64461553,1.7252362
1090,2026-05-11 16:17:13.762906,-0.8756608,-1.8556571,-1.6939404,-1.3790283,-0.64461553,1.7252362
1091,2026-05-11 16:17:13.765901,-0.8756608,-1.8556571,-1.6939404,-1.3790283,-0.64461553,1.7252362
1092,2026-05-11 16:17:13.768804,-0.8756608,-1.8556571,-1.6939404,-1.3790283,-0.64461553,1.7252362
1093,2026-05-11 16:17:13.771413,-0.8756608,-1.8556571,-1.6939404,-1.3790283,-0.64461553,1.7252362
1094,2026-05-11 16:17:13.774121,-0.8756608,-1.8556571,-1.6939404,-2.8043296,0.31703907,1.9184223
1095,2026-05-11 16:17:13.776850,-0.8756608,-1.8556571,-1.6939404,-2.8043296,0.31703907,1.9184223
1096,2026-05-11 16:17:13.779442,-0.8756608,-1.8556571,-1.6939404,-2.8043296,0.31703907,1.9184223
1097,2026-05-11 16:17:13.782463,-0.8756608,-1.8556571,-1.6939404,-2.8043296,0.31703907,1.9184223
1098,2026-05-11 16:17:13.785173,-0.8756608,-1.8556571,-1.6939404,-2.8043296,0.31703907,1.9184223
1099,2026-05-11 16:17:13.787764,-0.8756608,-1.8556571,-1.6939404,-2.8043296,0.31703907,1.9184223
1100,2026-05-11 16:17:13.790366,-0.8756608,-1.8556571,-1.6939404,-2.8043296,0.31703907,1.9184223
1101,2026-05-11 16:17:13.792946,-0.8756608,-1.8556571,-1.6939404,-2.8043296,0.31703907,1.9184223
1102,2026-05-11 16:17:13.795697,-0.8756608,-1.8556571,-1.6939404,-2.8043296,0.31703907,1.9184223
1103,2026-05-11 16:17:13.798751,-0.80571777,-1.8597426,-1.346542,-2.8043296,0.31703907,1.9184223
1104,2026-05-11 16:17:13.801925,-0.80571777,-1.8597426,-1.346542,-2.8043296,0.31703907,1.9184223
1105,2026-05-11 16:17:13.804607,-0.80571777,-1.8597426,-1.346542,-2.8043296,0.31703907,1.9184223
1106,2026-05-11 16:17:13.807255,-0.80571777,-1.8597426,-1.346542,-2.8043296,0.31703907,1.9184223
1107,2026-05-11 16:17:13.809850,-0.80571777,-1.8597426,-1.346542,-2.8043296,0.31703907,1.9184223
1108,2026-05-11 16:17:13.812566,-0.80571777,-1.8597426,-1.346542,-2.8043296,0.31703907,1.9184223
1109,2026-05-11 16:17:13.815605,-0.80571777,-1.8597426,-1.346542,-2.8043296,0.31703907,1.9184223
1110,2026-05-11 16:17:13.818591,-0.80571777,-1.8597426,-1.346542,-2.8043296,0.31703907,1.9184223
1111,2026-05-11 16:17:13.821222,-0.80571777,-1.8597426,-1.346542,-2.8043296,0.31703907,1.9184223
1112,2026-05-11 16:17:13.824018,-0.80571777,-1.8597426,-1.346542,-2.8043296,0.31703907,1.9184223
1113,2026-05-11 16:17:13.826613,-0.80571777,-1.8597426,-1.346542,-2.8043296,0.31703907,1.9184223
1114,2026-05-11 16:17:13.829346,-0.80571777,-1.8597426,-1.346542,-3.6885571,0.82924956,2.0841196
1115,2026-05-11 16:17:13.832411,-0.80571777,-1.8597426,-1.346542,-3.6885571,0.82924956,2.0841196
1116,2026-05-11 16:17:13.835211,-0.71760285,-1.8246796,-0.83639026,-4.4926085,1.1261301,2.357329
1117,2026-05-11 16:17:13.837799,-0.71760285,-1.8246796,-0.83639026,-4.4926085,1.1261301,2.357329
1118,2026-05-11 16:17:13.840531,-0.5499101,-1.7826041,-0.55417866,-5.0118437,1.2153164,2.597399
1119,2026-05-11 16:17:13.843118,-0.5499101,-1.7826041,-0.55417866,-5.0118437,1.2153164,2.597399
1120,2026-05-11 16:17:13.845869,-0.5499101,-1.7826041,-0.55417866,-5.0118437,1.2153164,2.597399
1121,2026-05-11 16:17:13.848897,-0.5499101,-1.7826041,-0.55417866,-5.0118437,1.2153164,2.597399
1122,2026-05-11 16:17:13.851763,-0.5499101,-1.7826041,-0.55417866,-5.0118437,1.2153164,2.597399
1123,2026-05-11 16:17:13.854378,-0.4551485,-1.7370527,-0.39057156,-5.204419,1.2116512,2.7249172
1124,2026-05-11 16:17:13.857177,-0.4551485,-1.7370527,-0.39057156,-5.204419,1.2116512,2.7249172
1125,2026-05-11 16:17:13.859790,-0.4551485,-1.7370527,-0.39057156,-5.204419,1.2116512,2.7249172
1126,2026-05-11 16:17:13.862361,-0.4551485,-1.7370527,-0.39057156,-5.204419,1.2116512,2.7249172
1127,2026-05-11 16:17:13.865459,-0.25721014,-1.6578407,-0.10476221,-5.444184,1.1267409,2.9578094
1128,2026-05-11 16:17:13.868353,-0.25721014,-1.6578407,-0.10476221,-5.444184,1.1267409,2.9578094
1129,2026-05-11 16:17:13.870969,-0.25721014,-1.6578407,-0.10476221,-5.444184,1.1267409,2.9578094
1130,2026-05-11 16:17:13.873568,-0.25721014,-1.6578407,-0.10476221,-5.444184,1.1267409,2.9578094
1131,2026-05-11 16:17:13.876130,-0.25721014,-1.6578407,-0.10476221,-5.444184,1.1267409,2.9578094
1132,2026-05-11 16:17:13.878708,-0.25721014,-1.6578407,-0.10476221,-5.444184,1.1267409,2.9578094
1133,2026-05-11 16:17:13.881487,-0.25721014,-1.6578407,-0.10476221,-5.4967184,1.0713049,3.0343204
1134,2026-05-11 16:17:13.884959,-0.25721014,-1.6578407,-0.10476221,-5.4967184,1.0713049,3.0343204
1135,2026-05-11 16:17:13.887802,-0.25721014,-1.6578407,-0.10476221,-5.4967184,1.0713049,3.0343204
1136,2026-05-11 16:17:13.890393,-0.25721014,-1.6578407,-0.10476221,-5.4967184,1.0713049,3.0343204
1137,2026-05-11 16:17:13.892993,-0.25721014,-1.6578407,-0.10476221,-5.4967184,1.0713049,3.0343204
1138,2026-05-11 16:17:13.895565,-0.25721014,-1.6578407,-0.10476221,-5.4967184,1.0713049,3.0343204
1139,2026-05-11 16:17:13.898594,-0.25721014,-1.6578407,-0.10476221,-5.4967184,1.0713049,3.0343204
1140,2026-05-11 16:17:13.902105,-0.18836464,-1.5885073,0.06756492,-5.4967184,1.0713049,3.0343204
1141,2026-05-11 16:17:13.904799,-0.18836464,-1.5885073,0.06756492,-5.4967184,1.0713049,3.0343204
1142,2026-05-11 16:17:13.907367,-0.18836464,-1.5885073,0.06756492,-5.4967184,1.0713049,3.0343204
1143,2026-05-11 16:17:13.910181,-0.18836464,-1.5885073,0.06756492,-5.4967184,1.0713049,3.0343204
1144,2026-05-11 16:17:13.912792,-0.18836464,-1.5885073,0.06756492,-5.4967184,1.0713049,3.0343204
1145,2026-05-11 16:17:13.915708,-0.18836464,-1.5885073,0.06756492,-5.4967184,1.0713049,3.0343204
1146,2026-05-11 16:17:13.918555,-0.18836464,-1.5885073,0.06756492,-5.4967184,1.0713049,3.0343204
1147,2026-05-11 16:17:13.921130,-0.18836464,-1.5885073,0.06756492,-5.4967184,1.0713049,3.0343204
1148,2026-05-11 16:17:13.924075,-0.18836464,-1.5885073,0.06756492,-5.4967184,1.0713049,3.0343204
1149,2026-05-11 16:17:13.926805,-0.18836464,-1.5885073,0.06756492,-5.4967184,1.0713049,3.0343204
1150,2026-05-11 16:17:13.929648,-0.18836464,-1.5885073,0.06756492,-5.4967184,1.0713049,3.0343204
1151,2026-05-11 16:17:13.932791,-0.18836464,-1.5885073,0.06756492,-5.4967184,1.0713049,3.0343204
1152,2026-05-11 16:17:13.935599,-0.18836464,-1.5885073,0.06756492,-5.4967184,1.0713049,3.0343204
1153,2026-05-11 16:17:13.938491,-0.19964579,-1.554542,0.31007907,-5.5381045,0.96776325,3.302032
1154,2026-05-11 16:17:13.941308,-0.19964579,-1.554542,0.31007907,-5.5381045,0.96776325,3.302032
1155,2026-05-11 16:17:13.943926,-0.19964579,-1.554542,0.31007907,-5.5381045,0.96776325,3.302032
1156,2026-05-11 16:17:13.946626,-0.19964579,-1.554542,0.31007907,-5.5381045,0.96776325,3.302032
1157,2026-05-11 16:17:13.949566,-0.19964579,-1.554542,0.31007907,-5.5381045,0.96776325,3.302032
1158,2026-05-11 16:17:13.952328,-0.19964579,-1.554542,0.31007907,-5.5381045,0.96776325,3.302032
1159,2026-05-11 16:17:13.954875,-0.19964579,-1.554542,0.31007907,-5.5381045,0.96776325,3.302032
1160,2026-05-11 16:17:13.957427,-0.19964579,-1.554542,0.31007907,-5.5381045,0.96776325,3.302032
1161,2026-05-11 16:17:13.960292,-0.19964579,-1.554542,0.31007907,-5.5381045,0.96776325,3.302032
1162,2026-05-11 16:17:13.963048,-0.21739073,-1.5522857,0.59722996,-5.448918,0.8929323,3.7530034
1163,2026-05-11 16:17:13.966137,-0.21739073,-1.5522857,0.59722996,-5.448918,0.8929323,3.7530034
1164,2026-05-11 16:17:13.968937,-0.21739073,-1.5522857,0.59722996,-5.448918,0.8929323,3.7530034
1165,2026-05-11 16:17:13.971549,-0.21739073,-1.5522857,0.59722996,-5.448918,0.8929323,3.7530034
1166,2026-05-11 16:17:13.974365,-0.21739073,-1.5522857,0.59722996,-5.448918,0.8929323,3.7530034
1167,2026-05-11 16:17:13.977009,-0.21739073,-1.5522857,0.59722996,-5.448918,0.8929323,3.7530034
1168,2026-05-11 16:17:13.979952,-0.21739073,-1.5522857,0.59722996,-5.448918,0.8929323,3.7530034
1169,2026-05-11 16:17:13.982764,-0.21739073,-1.5522857,0.59722996,-5.448918,0.8929323,3.7530034
1170,2026-05-11 16:17:14.012098,-0.16379005,-1.5617375,0.8364513,-5.1758614,0.88040954,4.9087605
1171,2026-05-11 16:17:14.015664,-0.03469715,-1.4974654,0.93163973,-5.1758614,0.88040954,4.9087605
1172,2026-05-11 16:17:14.022276,0.17848602,-1.4043502,0.9244442,-5.1758614,0.88040954,4.9087605
1173,2026-05-11 16:17:14.026117,0.17848602,-1.4043502,0.9244442,-5.1758614,0.88040954,4.9087605
1174,2026-05-11 16:17:14.028988,0.17848602,-1.4043502,0.9244442,-5.1758614,0.88040954,4.9087605
1175,2026-05-11 16:17:14.031973,0.17848602,-1.4043502,0.9244442,-5.1758614,0.88040954,4.9087605
1176,2026-05-11 16:17:14.034972,0.17848602,-1.4043502,0.9244442,-5.1758614,0.88040954,4.9087605
1177,2026-05-11 16:17:14.037635,0.17848602,-1.4043502,0.9244442,-5.1758614,0.88040954,4.9087605
1178,2026-05-11 16:17:14.040239,0.17848602,-1.4043502,0.9244442,-5.1758614,0.88040954,4.9087605
1179,2026-05-11 16:17:14.043021,0.17848602,-1.4043502,0.9244442,-5.1758614,0.88040954,4.9087605
1180,2026-05-11 16:17:14.045685,0.17848602,-1.4043502,0.9244442,-5.222745,0.8561276,5.533981
1181,2026-05-11 16:17:14.048612,0.17848602,-1.4043502,0.9244442,-5.222745,0.8561276,5.533981
1182,2026-05-11 16:17:14.051682,0.17848602,-1.4043502,0.9244442,-5.222745,0.8561276,5.533981
1183,2026-05-11 16:17:14.054405,0.17848602,-1.4043502,0.9244442,-5.222745,0.8561276,5.533981
1184,2026-05-11 16:17:14.057196,0.17848602,-1.4043502,0.9244442,-5.222745,0.8561276,5.533981
1185,2026-05-11 16:17:14.059953,0.43319598,-1.3146499,0.921822,-5.222745,0.8561276,5.533981
1186,2026-05-11 16:17:14.062697,0.43319598,-1.3146499,0.921822,-5.222745,0.8561276,5.533981
1187,2026-05-11 16:17:14.065860,0.43319598,-1.3146499,0.921822,-5.222745,0.8561276,5.533981
1188,2026-05-11 16:17:14.068637,0.43319598,-1.3146499,0.921822,-5.222745,0.8561276,5.533981
1189,2026-05-11 16:17:14.071375,0.43319598,-1.3146499,0.921822,-5.475949,0.8003862,5.98709
1190,2026-05-11 16:17:14.074104,0.43319598,-1.3146499,0.921822,-5.475949,0.8003862,5.98709
1191,2026-05-11 16:17:14.076901,0.89200324,-1.1775687,1.0529882,-5.964641,0.7122689,6.3255095
1192,2026-05-11 16:17:14.079673,0.89200324,-1.1775687,1.0529882,-5.964641,0.7122689,6.3255095
1193,2026-05-11 16:17:14.082835,0.89200324,-1.1775687,1.0529882,-5.964641,0.7122689,6.3255095
1194,2026-05-11 16:17:14.085555,0.89200324,-1.1775687,1.0529882,-5.964641,0.7122689,6.3255095
1195,2026-05-11 16:17:14.088258,0.89200324,-1.1775687,1.0529882,-5.964641,0.7122689,6.3255095
1196,2026-05-11 16:17:14.091052,1.1590921,-1.1195775,1.1574455,-5.964641,0.7122689,6.3255095
1197,2026-05-11 16:17:14.093641,1.1590921,-1.1195775,1.1574455,-5.964641,0.7122689,6.3255095
1198,2026-05-11 16:17:14.096410,1.1590921,-1.1195775,1.1574455,-6.2984786,0.6606508,6.3525405
1199,2026-05-11 16:17:14.099527,1.1590921,-1.1195775,1.1574455,-6.2984786,0.6606508,6.3525405
1200,2026-05-11 16:17:14.102317,1.5604569,-1.0309747,1.4533165,-6.2984786,0.6606508,6.3525405
1201,2026-05-11 16:17:14.104905,1.5604569,-1.0309747,1.4533165,-6.2984786,0.6606508,6.3525405
1202,2026-05-11 16:17:14.107554,1.5604569,-1.0309747,1.4533165,-6.2984786,0.6606508,6.3525405
1203,2026-05-11 16:17:14.110122,1.5604569,-1.0309747,1.4533165,-6.2984786,0.6606508,6.3525405
1204,2026-05-11 16:17:14.113020,1.5604569,-1.0309747,1.4533165,-6.2984786,0.6606508,6.3525405
1205,2026-05-11 16:17:14.116070,1.5604569,-1.0309747,1.4533165,-6.2984786,0.6606508,6.3525405
1206,2026-05-11 16:17:14.118859,1.5604569,-1.0309747,1.4533165,-6.2984786,0.6606508,6.3525405
1207,2026-05-11 16:17:14.121531,1.5604569,-1.0309747,1.4533165,-6.2984786,0.6606508,6.3525405
1208,2026-05-11 16:17:14.124111,1.5604569,-1.0309747,1.4533165,-6.2984786,0.6606508,6.3525405
1209,2026-05-11 16:17:14.126912,1.5604569,-1.0309747,1.4533165,-6.2984786,0.6606508,6.3525405
1210,2026-05-11 16:17:14.129605,1.5604569,-1.0309747,1.4533165,-7.03732,0.6693556,6.0585613
1211,2026-05-11 16:17:14.132675,1.5604569,-1.0309747,1.4533165,-7.03732,0.6693556,6.0585613
1212,2026-05-11 16:17:14.135408,1.5604569,-1.0309747,1.4533165,-7.03732,0.6693556,6.0585613
1213,2026-05-11 16:17:14.138023,1.5604569,-1.0309747,1.4533165,-7.03732,0.6693556,6.0585613
1214,2026-05-11 16:17:14.140756,1.5604569,-1.0309747,1.4533165,-7.03732,0.6693556,6.0585613
1215,2026-05-11 16:17:14.143414,1.5604569,-1.0309747,1.4533165,-7.03732,0.6693556,6.0585613
1216,2026-05-11 16:17:14.146155,1.5604569,-1.0309747,1.4533165,-7.03732,0.6693556,6.0585613
1217,2026-05-11 16:17:14.149125,1.5604569,-1.0309747,1.4533165,-7.03732,0.6693556,6.0585613
1218,2026-05-11 16:17:14.151970,1.5604569,-1.0309747,1.4533165,-7.03732,0.6693556,6.0585613
1219,2026-05-11 16:17:14.154599,1.5604569,-1.0309747,1.4533165,-7.03732,0.6693556,6.0585613
1220,2026-05-11 16:17:14.157184,1.5604569,-1.0309747,1.4533165,-7.03732,0.6693556,6.0585613
1221,2026-05-11 16:17:14.159948,1.5604569,-1.0309747,1.4533165,-7.03732,0.6693556,6.0585613
1222,2026-05-11 16:17:14.162506,1.5604569,-1.0309747,1.4533165,-7.03732,0.6693556,6.0585613
1223,2026-05-11 16:17:14.165469,1.5604569,-1.0309747,1.4533165,-7.03732,0.6693556,6.0585613
1224,2026-05-11 16:17:14.168397,1.5604569,-1.0309747,1.4533165,-7.03732,0.6693556,6.0585613
1225,2026-05-11 16:17:14.171328,1.5604569,-1.0309747,1.4533165,-7.2578425,0.7255552,5.7641244
1226,2026-05-11 16:17:14.174153,1.5604569,-1.0309747,1.4533165,-7.2578425,0.7255552,5.7641244
1227,2026-05-11 16:17:14.176809,1.5604569,-1.0309747,1.4533165,-7.2578425,0.7255552,5.7641244
1228,2026-05-11 16:17:14.179629,1.5604569,-1.0309747,1.4533165,-7.2578425,0.7255552,5.7641244
1229,2026-05-11 16:17:14.182815,1.5604569,-1.0309747,1.4533165,-7.2578425,0.7255552,5.7641244
1230,2026-05-11 16:17:14.185740,1.5604569,-1.0309747,1.4533165,-7.2578425,0.7255552,5.7641244
1231,2026-05-11 16:17:14.188444,1.5604569,-1.0309747,1.4533165,-7.2578425,0.7255552,5.7641244
1232,2026-05-11 16:17:14.191088,1.5604569,-1.0309747,1.4533165,-7.2578425,0.7255552,5.7641244
1233,2026-05-11 16:17:14.193669,1.5604569,-1.0309747,1.4533165,-7.2578425,0.7255552,5.7641244
1234,2026-05-11 16:17:14.196470,1.5534443,-1.0729284,1.7730912,-7.2578425,0.7255552,5.7641244
1235,2026-05-11 16:17:14.199578,1.5534443,-1.0729284,1.7730912,-7.2578425,0.7255552,5.7641244
1236,2026-05-11 16:17:14.202430,1.5534443,-1.0729284,1.7730912,-7.2578425,0.7255552,5.7641244
1237,2026-05-11 16:17:14.205043,1.5534443,-1.0729284,1.7730912,-7.2578425,0.7255552,5.7641244
1238,2026-05-11 16:17:14.207673,1.5534443,-1.0729284,1.7730912,-7.2578425,0.7255552,5.7641244
1239,2026-05-11 16:17:14.210247,1.5534443,-1.0729284,1.7730912,-7.2578425,0.7255552,5.7641244
1240,2026-05-11 16:17:14.212971,1.5534443,-1.0729284,1.7730912,-7.2578425,0.7255552,5.7641244
1241,2026-05-11 16:17:14.215989,1.5534443,-1.0729284,1.7730912,-7.2578425,0.7255552,5.7641244
1242,2026-05-11 16:17:14.218772,1.5534443,-1.0729284,1.7730912,-7.2578425,0.7255552,5.7641244
1243,2026-05-11 16:17:14.221449,1.5534443,-1.0729284,1.7730912,-7.2578425,0.7255552,5.7641244
1244,2026-05-11 16:17:14.224010,1.5534443,-1.0729284,1.7730912,-7.2578425,0.7255552,5.7641244
1245,2026-05-11 16:17:14.226671,1.5534443,-1.0729284,1.7730912,-7.2578425,0.7255552,5.7641244
1246,2026-05-11 16:17:14.229207,1.5534443,-1.0729284,1.7730912,-7.2578425,0.7255552,5.7641244
1247,2026-05-11 16:17:14.232385,1.3516033,-1.1522623,2.1454911,-7.1385713,0.66675943,5.6472964
1248,2026-05-11 16:17:14.235101,1.3516033,-1.1522623,2.1454911,-7.1385713,0.66675943,5.6472964
1249,2026-05-11 16:17:14.237661,1.3516033,-1.1522623,2.1454911,-7.1385713,0.66675943,5.6472964
1250,2026-05-11 16:17:14.240314,1.3516033,-1.1522623,2.1454911,-7.1385713,0.66675943,5.6472964
1251,2026-05-11 16:17:14.242901,1.3516033,-1.1522623,2.1454911,-7.1385713,0.66675943,5.6472964
1252,2026-05-11 16:17:14.245519,1.3516033,-1.1522623,2.1454911,-7.1385713,0.66675943,5.6472964
1253,2026-05-11 16:17:14.248134,1.3516033,-1.1522623,2.1454911,-7.1385713,0.66675943,5.6472964
1254,2026-05-11 16:17:14.251613,1.3516033,-1.1522623,2.1454911,-7.1385713,0.66675943,5.6472964
1255,2026-05-11 16:17:14.254411,1.3516033,-1.1522623,2.1454911,-7.1385713,0.66675943,5.6472964
1256,2026-05-11 16:17:14.257133,1.3516033,-1.1522623,2.1454911,-7.1385713,0.66675943,5.6472964
1257,2026-05-11 16:17:14.259760,1.3516033,-1.1522623,2.1454911,-7.1385713,0.66675943,5.6472964
1258,2026-05-11 16:17:14.262574,1.3516033,-1.1522623,2.1454911,-7.1385713,0.66675943,5.6472964
1259,2026-05-11 16:17:14.265706,1.3516033,-1.1522623,2.1454911,-7.1385713,0.66675943,5.6472964
1260,2026-05-11 16:17:14.268660,1.206107,-1.1839105,2.38581,-7.1385713,0.66675943,5.6472964
1261,2026-05-11 16:17:14.271470,1.206107,-1.1839105,2.38581,-6.6648455,0.453262,5.8041363
1262,2026-05-11 16:17:14.274334,1.1625068,-1.1954966,2.4742296,-6.6648455,0.453262,5.8041363
1263,2026-05-11 16:17:14.277105,1.1625068,-1.1954966,2.4742296,-6.6648455,0.453262,5.8041363
1264,2026-05-11 16:17:14.279923,1.1625068,-1.1954966,2.4742296,-6.6648455,0.453262,5.8041363
1265,2026-05-11 16:17:14.282980,1.1625068,-1.1954966,2.4742296,-6.6648455,0.453262,5.8041363
1266,2026-05-11 16:17:14.285870,1.1625068,-1.1954966,2.4742296,-6.6648455,0.453262,5.8041363
1267,2026-05-11 16:17:14.288521,1.1625068,-1.1954966,2.4742296,-6.6648455,0.453262,5.8041363
1268,2026-05-11 16:17:14.291144,1.1625068,-1.1954966,2.4742296,-6.6648455,0.453262,5.8041363
1269,2026-05-11 16:17:14.293889,1.1625068,-1.1954966,2.4742296,-6.6648455,0.453262,5.8041363
1270,2026-05-11 16:17:14.296486,1.1625068,-1.1954966,2.4742296,-6.6648455,0.453262,5.8041363
1271,2026-05-11 16:17:14.299587,1.1625068,-1.1954966,2.4742296,-6.6648455,0.453262,5.8041363
1272,2026-05-11 16:17:14.302324,1.1625068,-1.1954966,2.4742296,-6.6648455,0.453262,5.8041363
1273,2026-05-11 16:17:14.305129,1.1625068,-1.1954966,2.4742296,-5.962503,0.17455475,6.085745
1274,2026-05-11 16:17:14.307816,1.1625068,-1.1954966,2.4742296,-5.962503,0.17455475,6.085745
1275,2026-05-11 16:17:14.310468,1.3222723,-1.1282976,2.3567228,-4.737718,-0.22983804,6.6066604
1276,2026-05-11 16:17:14.313053,1.3222723,-1.1282976,2.3567228,-4.737718,-0.22983804,6.6066604
1277,2026-05-11 16:17:14.315930,1.3222723,-1.1282976,2.3567228,-4.737718,-0.22983804,6.6066604
1278,2026-05-11 16:17:14.318674,1.3222723,-1.1282976,2.3567228,-4.737718,-0.22983804,6.6066604
1279,2026-05-11 16:17:14.321330,1.3222723,-1.1282976,2.3567228,-4.737718,-0.22983804,6.6066604
1280,2026-05-11 16:17:14.324077,1.3222723,-1.1282976,2.3567228,-4.737718,-0.22983804,6.6066604
1281,2026-05-11 16:17:14.326743,1.3222723,-1.1282976,2.3567228,-4.737718,-0.22983804,6.6066604
1282,2026-05-11 16:17:14.329350,1.3222723,-1.1282976,2.3567228,-4.737718,-0.22983804,6.6066604
1283,2026-05-11 16:17:14.332595,1.3222723,-1.1282976,2.3567228,-4.737718,-0.22983804,6.6066604
1284,2026-05-11 16:17:14.335314,1.3222723,-1.1282976,2.3567228,-4.737718,-0.22983804,6.6066604
1285,2026-05-11 16:17:14.338031,1.3222723,-1.1282976,2.3567228,-4.737718,-0.22983804,6.6066604
1286,2026-05-11 16:17:14.340753,1.3222723,-1.1282976,2.3567228,-4.737718,-0.22983804,6.6066604
1287,2026-05-11 16:17:14.343380,1.3222723,-1.1282976,2.3567228,-4.737718,-0.22983804,6.6066604
1288,2026-05-11 16:17:14.346046,1.3222723,-1.1282976,2.3567228,-4.737718,-0.22983804,6.6066604
1289,2026-05-11 16:17:14.349166,1.3222723,-1.1282976,2.3567228,-4.737718,-0.22983804,6.6066604
1290,2026-05-11 16:17:14.352068,1.3222723,-1.1282976,2.3567228,-4.737718,-0.22983804,6.6066604
1291,2026-05-11 16:17:14.354695,1.3222723,-1.1282976,2.3567228,-4.737718,-0.22983804,6.6066604
1292,2026-05-11 16:17:14.357393,1.3222723,-1.1282976,2.3567228,-4.737718,-0.22983804,6.6066604
1293,2026-05-11 16:17:14.360045,1.3222723,-1.1282976,2.3567228,-4.737718,-0.22983804,6.6066604
