
id,timestamp,acc_x,acc_y,acc_z,gyro_x,gyro_y,gyro_z
1,2026-05-11 16:16:39.070503,1.4475235,1.9794447,3.0311525,1.185384,-1.6708691,-3.38175
2,2026-05-11 16:16:39.081806,1.4475235,1.9794447,3.0311525,1.185384,-1.6708691,-3.38175
3,2026-05-11 16:16:39.084903,1.4475235,1.9794447,3.0311525,1.185384,-1.6708691,-3.38175
4,2026-05-11 16:16:39.087834,1.4475235,1.9794447,3.0311525,1.185384,-1.6708691,-3.38175
5,2026-05-11 16:16:39.090500,1.4475235,1.9794447,3.0311525,1.185384,-1.6708691,-3.38175
6,2026-05-11 16:16:39.093122,1.4475235,1.9794447,3.0311525,1.185384,-1.6708691,-3.38175
7,2026-05-11 16:16:39.095792,1.4475235,1.9794447,3.0311525,1.185384,-1.6708691,-3.38175
8,2026-05-11 16:16:39.098883,1.563201,1.9815791,3.0286524,2.2540927,-2.1053472,-3.429703
9,2026-05-11 16:16:39.102198,1.563201,1.9815791,3.0286524,2.2540927,-2.1053472,-3.429703
10,2026-05-11 16:16:39.104865,1.563201,1.9815791,3.0286524,2.2540927,-2.1053472,-3.429703
11,2026-05-11 16:16:39.107464,1.563201,1.9815791,3.0286524,2.2540927,-2.1053472,-3.429703
12,2026-05-11 16:16:39.110048,1.563201,1.9815791,3.0286524,2.2540927,-2.1053472,-3.429703
13,2026-05-11 16:16:39.112823,1.563201,1.9815791,3.0286524,2.2540927,-2.1053472,-3.429703
14,2026-05-11 16:16:39.115820,1.563201,1.9815791,3.0286524,2.2540927,-2.1053472,-3.429703
15,2026-05-11 16:16:39.118682,1.563201,1.9815791,3.0286524,2.2540927,-2.1053472,-3.429703
16,2026-05-11 16:16:39.121386,1.563201,1.9815791,3.0286524,2.2540927,-2.1053472,-3.429703
17,2026-05-11 16:16:39.123999,1.563201,1.9815791,3.0286524,2.2540927,-2.1053472,-3.429703
18,2026-05-11 16:16:39.126736,1.563201,1.9815791,3.0286524,2.2540927,-2.1053472,-3.429703
19,2026-05-11 16:16:39.129329,1.563201,1.9815791,3.0286524,2.2540927,-2.1053472,-3.429703
20,2026-05-11 16:16:39.132644,1.563201,1.9815791,3.0286524,2.2540927,-2.1053472,-3.429703
21,2026-05-11 16:16:39.135516,1.563201,1.9815791,3.0286524,2.2540927,-2.1053472,-3.429703
22,2026-05-11 16:16:39.138276,1.563201,1.9815791,3.0286524,2.2540927,-2.1053472,-3.429703
23,2026-05-11 16:16:39.140919,1.563201,1.9815791,3.0286524,2.2540927,-2.1053472,-3.429703
24,2026-05-11 16:16:39.143498,1.563201,1.9815791,3.0286524,2.2540927,-2.1053472,-3.429703
25,2026-05-11 16:16:39.146344,1.563201,1.9815791,3.0286524,2.2540927,-2.1053472,-3.429703
26,2026-05-11 16:16:39.151915,1.563201,1.9815791,3.0286524,2.2540927,-2.1053472,-3.429703
27,2026-05-11 16:16:39.168005,1.563201,1.9815791,3.0286524,2.2540927,-2.1053472,-3.429703
28,2026-05-11 16:16:39.178922,1.563201,1.9815791,3.0286524,2.2540927,-2.1053472,-3.429703
29,2026-05-11 16:16:39.184527,1.563201,1.9815791,3.0286524,2.2540927,-2.1053472,-3.429703
30,2026-05-11 16:16:39.190337,1.563201,1.9815791,3.0286524,2.2540927,-2.1053472,-3.429703
31,2026-05-11 16:16:39.193199,1.563201,1.9815791,3.0286524,2.2540927,-2.1053472,-3.429703
32,2026-05-11 16:16:39.195827,1.563201,1.9815791,3.0286524,2.2540927,-2.1053472,-3.429703
33,2026-05-11 16:16:39.198912,1.563201,1.9815791,3.0286524,2.2540927,-2.1053472,-3.429703
34,2026-05-11 16:16:39.201866,1.563201,1.9815791,3.0286524,2.2540927,-2.1053472,-3.429703
35,2026-05-11 16:16:39.204647,1.563201,1.9815791,3.0286524,2.2540927,-2.1053472,-3.429703
36,2026-05-11 16:16:39.207260,1.563201,1.9815791,3.0286524,2.2540927,-2.1053472,-3.429703
37,2026-05-11 16:16:39.209900,1.563201,1.9815791,3.0286524,2.2540927,-2.1053472,-3.429703
38,2026-05-11 16:16:39.212474,1.563201,1.9815791,3.0286524,2.2540927,-2.1053472,-3.429703
39,2026-05-11 16:16:39.215640,1.563201,1.9815791,3.0286524,2.2540927,-2.1053472,-3.429703
40,2026-05-11 16:16:39.218447,1.563201,1.9815791,3.0286524,2.2540927,-2.1053472,-3.429703
41,2026-05-11 16:16:39.221045,1.563201,1.9815791,3.0286524,2.2540927,-2.1053472,-3.429703
42,2026-05-11 16:16:39.223631,1.563201,1.9815791,3.0286524,2.2540927,-2.1053472,-3.429703
43,2026-05-11 16:16:39.226359,1.563201,1.9815791,3.0286524,2.2540927,-2.1053472,-3.429703
44,2026-05-11 16:16:39.228919,1.563201,1.9815791,3.0286524,2.2540927,-2.1053472,-3.429703
45,2026-05-11 16:16:39.231918,1.563201,1.9815791,3.0286524,2.958573,-2.346486,-3.4910948
46,2026-05-11 16:16:39.234929,1.563201,1.9815791,3.0286524,2.958573,-2.346486,-3.4910948
47,2026-05-11 16:16:39.237529,1.563201,1.9815791,3.0286524,2.958573,-2.346486,-3.4910948
48,2026-05-11 16:16:39.240089,1.563201,1.9815791,3.0286524,2.958573,-2.346486,-3.4910948
49,2026-05-11 16:16:39.242697,1.563201,1.9815791,3.0286524,2.958573,-2.346486,-3.4910948
50,2026-05-11 16:16:39.245246,1.563201,1.9815791,3.0286524,2.958573,-2.346486,-3.4910948
51,2026-05-11 16:16:39.247944,1.563201,1.9815791,3.0286524,2.958573,-2.346486,-3.4910948
52,2026-05-11 16:16:39.251029,1.563201,1.9815791,3.0286524,2.958573,-2.346486,-3.4910948
53,2026-05-11 16:16:39.253754,1.563201,1.9815791,3.0286524,2.958573,-2.346486,-3.4910948
54,2026-05-11 16:16:39.256670,1.563201,1.9815791,3.0286524,2.958573,-2.346486,-3.4910948
55,2026-05-11 16:16:39.259314,1.563201,1.9815791,3.0286524,2.958573,-2.346486,-3.4910948
56,2026-05-11 16:16:39.262218,1.563201,1.9815791,3.0286524,2.958573,-2.346486,-3.4910948
57,2026-05-11 16:16:39.265234,1.563201,1.9815791,3.0286524,2.958573,-2.346486,-3.4910948
58,2026-05-11 16:16:39.268385,1.563201,1.9815791,3.0286524,2.958573,-2.346486,-3.4910948
59,2026-05-11 16:16:39.271007,1.563201,1.9815791,3.0286524,2.958573,-2.346486,-3.4910948
60,2026-05-11 16:16:39.273941,1.563201,1.9815791,3.0286524,2.958573,-2.346486,-3.4910948
61,2026-05-11 16:16:39.276554,1.563201,1.9815791,3.0286524,2.958573,-2.346486,-3.4910948
62,2026-05-11 16:16:39.279313,1.563201,1.9815791,3.0286524,2.958573,-2.346486,-3.4910948
63,2026-05-11 16:16:39.282544,1.563201,1.9815791,3.0286524,2.958573,-2.346486,-3.4910948
64,2026-05-11 16:16:39.285385,1.563201,1.9815791,3.0286524,2.958573,-2.346486,-3.4910948
65,2026-05-11 16:16:39.287991,1.563201,1.9815791,3.0286524,2.958573,-2.346486,-3.4910948
66,2026-05-11 16:16:39.290887,1.563201,1.9815791,3.0286524,2.958573,-2.346486,-3.4910948
67,2026-05-11 16:16:39.293551,1.563201,1.9815791,3.0286524,2.958573,-2.346486,-3.4910948
68,2026-05-11 16:16:39.296450,1.563201,1.9815791,3.0286524,2.958573,-2.346486,-3.4910948
69,2026-05-11 16:16:39.299611,1.563201,1.9815791,3.0286524,2.958573,-2.346486,-3.4910948
70,2026-05-11 16:16:39.302481,1.563201,1.9815791,3.0286524,2.958573,-2.346486,-3.4910948
71,2026-05-11 16:16:39.305078,1.563201,1.9815791,3.0286524,2.958573,-2.346486,-3.4910948
72,2026-05-11 16:16:39.307811,1.563201,1.9815791,3.0286524,2.958573,-2.346486,-3.4910948
73,2026-05-11 16:16:39.310430,1.563201,1.9815791,3.0286524,2.958573,-2.346486,-3.4910948
74,2026-05-11 16:16:39.313176,1.563201,1.9815791,3.0286524,2.958573,-2.346486,-3.4910948
75,2026-05-11 16:16:39.316231,1.563201,1.9815791,3.0286524,2.958573,-2.346486,-3.4910948
76,2026-05-11 16:16:39.318981,1.563201,1.9815791,3.0286524,2.958573,-2.346486,-3.4910948
77,2026-05-11 16:16:39.321604,1.563201,1.9815791,3.0286524,2.958573,-2.346486,-3.4910948
78,2026-05-11 16:16:39.324165,1.563201,1.9815791,3.0286524,2.958573,-2.346486,-3.4910948
79,2026-05-11 16:16:39.326760,1.563201,1.9815791,3.0286524,2.958573,-2.346486,-3.4910948
80,2026-05-11 16:16:39.329309,1.563201,1.9815791,3.0286524,2.958573,-2.346486,-3.4910948
81,2026-05-11 16:16:39.332299,1.563201,1.9815791,3.0286524,2.958573,-2.346486,-3.4910948
82,2026-05-11 16:16:39.335093,1.563201,1.9815791,3.0286524,2.958573,-2.346486,-3.4910948
83,2026-05-11 16:16:39.337655,1.563201,1.9815791,3.0286524,2.958573,-2.346486,-3.4910948
84,2026-05-11 16:16:39.340348,1.563201,1.9815791,3.0286524,2.958573,-2.346486,-3.4910948
85,2026-05-11 16:16:39.342890,1.563201,1.9815791,3.0286524,2.958573,-2.346486,-3.4910948
86,2026-05-11 16:16:39.345473,1.563201,1.9815791,3.0286524,2.958573,-2.346486,-3.4910948
87,2026-05-11 16:16:39.348518,1.563201,1.9815791,3.0286524,2.958573,-2.346486,-3.4910948
88,2026-05-11 16:16:39.351498,1.6811957,1.9433452,3.0573125,2.958573,-2.346486,-3.4910948
89,2026-05-11 16:16:39.354121,1.6811957,1.9433452,3.0573125,2.958573,-2.346486,-3.4910948
90,2026-05-11 16:16:39.356878,1.6811957,1.9433452,3.0573125,3.5845573,-2.5149322,-3.6491563
91,2026-05-11 16:16:39.359656,1.6811957,1.9433452,3.0573125,3.5845573,-2.5149322,-3.6491563
92,2026-05-11 16:16:39.362260,1.6811957,1.9433452,3.0573125,3.5845573,-2.5149322,-3.6491563
93,2026-05-11 16:16:39.364883,1.6811957,1.9433452,3.0573125,3.5845573,-2.5149322,-3.6491563
94,2026-05-11 16:16:39.368269,1.6811957,1.9433452,3.0573125,3.5845573,-2.5149322,-3.6491563
95,2026-05-11 16:16:39.370918,1.6811957,1.9433452,3.0573125,3.5845573,-2.5149322,-3.6491563
96,2026-05-11 16:16:39.373596,1.6811957,1.9433452,3.0573125,3.5845573,-2.5149322,-3.6491563
97,2026-05-11 16:16:39.376286,1.6811957,1.9433452,3.0573125,3.5845573,-2.5149322,-3.6491563
98,2026-05-11 16:16:39.378868,1.6811957,1.9433452,3.0573125,3.5845573,-2.5149322,-3.6491563
99,2026-05-11 16:16:39.382025,1.6811957,1.9433452,3.0573125,3.5845573,-2.5149322,-3.6491563
100,2026-05-11 16:16:39.384736,1.6811957,1.9433452,3.0573125,3.5845573,-2.5149322,-3.6491563
101,2026-05-11 16:16:39.387514,1.6811957,1.9433452,3.0573125,3.5845573,-2.5149322,-3.6491563
102,2026-05-11 16:16:39.390124,1.6811957,1.9433452,3.0573125,3.5845573,-2.5149322,-3.6491563
103,2026-05-11 16:16:39.392770,1.6811957,1.9433452,3.0573125,3.5845573,-2.5149322,-3.6491563
104,2026-05-11 16:16:39.395338,1.6811957,1.9433452,3.0573125,3.5845573,-2.5149322,-3.6491563
105,2026-05-11 16:16:39.398154,1.6811957,1.9433452,3.0573125,3.5845573,-2.5149322,-3.6491563
106,2026-05-11 16:16:39.401090,1.6811957,1.9433452,3.0573125,3.5845573,-2.5149322,-3.6491563
107,2026-05-11 16:16:39.403707,1.6811957,1.9433452,3.0573125,3.5845573,-2.5149322,-3.6491563
108,2026-05-11 16:16:39.406307,1.6811957,1.9433452,3.0573125,3.5845573,-2.5149322,-3.6491563
109,2026-05-11 16:16:39.408877,1.6811957,1.9433452,3.0573125,3.5845573,-2.5149322,-3.6491563
110,2026-05-11 16:16:39.411467,1.6811957,1.9433452,3.0573125,3.5845573,-2.5149322,-3.6491563
111,2026-05-11 16:16:39.413977,1.6811957,1.9433452,3.0573125,3.5845573,-2.5149322,-3.6491563
112,2026-05-11 16:16:39.417192,1.6811957,1.9433452,3.0573125,3.5845573,-2.5149322,-3.6491563
113,2026-05-11 16:16:39.419980,1.6811957,1.9433452,3.0573125,3.5845573,-2.5149322,-3.6491563
114,2026-05-11 16:16:39.422581,1.6811957,1.9433452,3.0573125,3.5845573,-2.5149322,-3.6491563
115,2026-05-11 16:16:39.425326,1.6811957,1.9433452,3.0573125,3.5845573,-2.5149322,-3.6491563
116,2026-05-11 16:16:39.427891,1.6811957,1.9433452,3.0573125,3.5845573,-2.5149322,-3.6491563
117,2026-05-11 16:16:39.430729,1.6811957,1.9433452,3.0573125,3.5845573,-2.5149322,-3.6491563
118,2026-05-11 16:16:39.433618,1.6811957,1.9433452,3.0573125,3.5845573,-2.5149322,-3.6491563
119,2026-05-11 16:16:39.436570,1.6811957,1.9433452,3.0573125,3.5845573,-2.5149322,-3.6491563
120,2026-05-11 16:16:39.439167,1.6811957,1.9433452,3.0573125,3.5845573,-2.5149322,-3.6491563
121,2026-05-11 16:16:39.442034,1.6811957,1.9433452,3.0573125,3.5845573,-2.5149322,-3.6491563
122,2026-05-11 16:16:39.444764,1.7832139,1.8818171,3.0633495,3.5845573,-2.5149322,-3.6491563
123,2026-05-11 16:16:39.447454,1.7832139,1.8818171,3.0633495,3.5845573,-2.5149322,-3.6491563
124,2026-05-11 16:16:39.450552,1.7832139,1.8818171,3.0633495,3.5845573,-2.5149322,-3.6491563
125,2026-05-11 16:16:39.453285,1.7832139,1.8818171,3.0633495,3.5845573,-2.5149322,-3.6491563
126,2026-05-11 16:16:39.455888,1.7832139,1.8818171,3.0633495,3.5845573,-2.5149322,-3.6491563
127,2026-05-11 16:16:39.458625,1.7832139,1.8818171,3.0633495,3.5845573,-2.5149322,-3.6491563
128,2026-05-11 16:16:39.461179,1.7832139,1.8818171,3.0633495,3.5845573,-2.5149322,-3.6491563
129,2026-05-11 16:16:39.463929,1.7832139,1.8818171,3.0633495,3.5845573,-2.5149322,-3.6491563
130,2026-05-11 16:16:39.467182,1.7832139,1.8818171,3.0633495,3.8351648,-2.5428793,-3.7988183
131,2026-05-11 16:16:39.470093,1.7832139,1.8818171,3.0633495,3.8351648,-2.5428793,-3.7988183
132,2026-05-11 16:16:39.472754,1.7832139,1.8818171,3.0633495,3.8351648,-2.5428793,-3.7988183
133,2026-05-11 16:16:39.475329,1.7832139,1.8818171,3.0633495,3.8351648,-2.5428793,-3.7988183
134,2026-05-11 16:16:39.477909,1.7832139,1.8818171,3.0633495,3.8351648,-2.5428793,-3.7988183
135,2026-05-11 16:16:39.480431,1.7832139,1.8818171,3.0633495,3.8351648,-2.5428793,-3.7988183
136,2026-05-11 16:16:39.483359,1.7832139,1.8818171,3.0633495,3.8351648,-2.5428793,-3.7988183
137,2026-05-11 16:16:39.486220,1.7832139,1.8818171,3.0633495,3.8351648,-2.5428793,-3.7988183
138,2026-05-11 16:16:39.488813,1.7832139,1.8818171,3.0633495,3.8351648,-2.5428793,-3.7988183
139,2026-05-11 16:16:39.491382,1.7832139,1.8818171,3.0633495,3.8351648,-2.5428793,-3.7988183
140,2026-05-11 16:16:39.494166,1.7832139,1.8818171,3.0633495,3.8351648,-2.5428793,-3.7988183
141,2026-05-11 16:16:39.496755,1.7832139,1.8818171,3.0633495,3.8351648,-2.5428793,-3.7988183
142,2026-05-11 16:16:39.499739,1.7832139,1.8818171,3.0633495,3.8351648,-2.5428793,-3.7988183
143,2026-05-11 16:16:39.502546,1.7832139,1.8818171,3.0633495,3.8351648,-2.5428793,-3.7988183
144,2026-05-11 16:16:39.505123,1.7832139,1.8818171,3.0633495,3.8351648,-2.5428793,-3.7988183
145,2026-05-11 16:16:39.507706,1.7832139,1.8818171,3.0633495,3.8351648,-2.5428793,-3.7988183
146,2026-05-11 16:16:39.510378,1.7832139,1.8818171,3.0633495,3.8351648,-2.5428793,-3.7988183
147,2026-05-11 16:16:39.512946,1.7832139,1.8818171,3.0633495,3.8351648,-2.5428793,-3.7988183
148,2026-05-11 16:16:39.516113,1.7832139,1.8818171,3.0633495,3.8351648,-2.5428793,-3.7988183
149,2026-05-11 16:16:39.518787,1.7832139,1.8818171,3.0633495,3.8351648,-2.5428793,-3.7988183
150,2026-05-11 16:16:39.521361,1.7832139,1.8818171,3.0633495,3.8351648,-2.5428793,-3.7988183
151,2026-05-11 16:16:39.523958,1.7832139,1.8818171,3.0633495,3.8351648,-2.5428793,-3.7988183
152,2026-05-11 16:16:39.526518,1.7832139,1.8818171,3.0633495,3.8351648,-2.5428793,-3.7988183
153,2026-05-11 16:16:39.529242,1.7832139,1.8818171,3.0633495,3.8351648,-2.5428793,-3.7988183
154,2026-05-11 16:16:39.532316,1.7832139,1.8818171,3.0633495,3.8351648,-2.5428793,-3.7988183
155,2026-05-11 16:16:39.535015,1.7832139,1.8818171,3.0633495,3.8351648,-2.5428793,-3.7988183
156,2026-05-11 16:16:39.537621,1.7832139,1.8818171,3.0633495,3.8351648,-2.5428793,-3.7988183
157,2026-05-11 16:16:39.540220,1.7832139,1.8818171,3.0633495,3.8351648,-2.5428793,-3.7988183
158,2026-05-11 16:16:39.542783,1.7832139,1.8818171,3.0633495,3.8351648,-2.5428793,-3.7988183
159,2026-05-11 16:16:39.545320,1.7832139,1.8818171,3.0633495,3.8351648,-2.5428793,-3.7988183
160,2026-05-11 16:16:39.547962,1.7832139,1.8818171,3.0633495,3.8351648,-2.5428793,-3.7988183
161,2026-05-11 16:16:39.550857,1.7832139,1.8818171,3.0633495,3.8351648,-2.5428793,-3.7988183
162,2026-05-11 16:16:39.553477,1.7832139,1.8818171,3.0633495,3.8351648,-2.5428793,-3.7988183
163,2026-05-11 16:16:39.556225,1.7832139,1.8818171,3.0633495,3.8351648,-2.5428793,-3.7988183
164,2026-05-11 16:16:39.558805,1.7832139,1.8818171,3.0633495,3.8351648,-2.5428793,-3.7988183
165,2026-05-11 16:16:39.561461,1.7832139,1.8818171,3.0633495,3.8351648,-2.5428793,-3.7988183
166,2026-05-11 16:16:39.564077,1.7832139,1.8818171,3.0633495,3.8351648,-2.5428793,-3.7988183
167,2026-05-11 16:16:39.568903,1.7832139,1.8818171,3.0633495,3.8351648,-2.5428793,-3.7988183
168,2026-05-11 16:16:39.572582,1.7832139,1.8818171,3.0633495,3.8351648,-2.5428793,-3.7988183
169,2026-05-11 16:16:39.576237,1.7832139,1.8818171,3.0633495,3.8351648,-2.5428793,-3.7988183
170,2026-05-11 16:16:39.579222,1.7832139,1.8818171,3.0633495,3.8351648,-2.5428793,-3.7988183
171,2026-05-11 16:16:39.582223,1.7832139,1.8818171,3.0633495,3.8351648,-2.5428793,-3.7988183
172,2026-05-11 16:16:39.585238,1.7832139,1.8818171,3.0633495,3.8351648,-2.5428793,-3.7988183
173,2026-05-11 16:16:39.587913,1.7832139,1.8818171,3.0633495,3.8351648,-2.5428793,-3.7988183
174,2026-05-11 16:16:39.590527,1.7832139,1.8818171,3.0633495,3.8351648,-2.5428793,-3.7988183
175,2026-05-11 16:16:39.593370,1.7832139,1.8818171,3.0633495,3.8351648,-2.5428793,-3.7988183
176,2026-05-11 16:16:39.595995,1.7832139,1.8818171,3.0633495,3.8351648,-2.5428793,-3.7988183
177,2026-05-11 16:16:39.598940,1.7832139,1.8818171,3.0633495,3.8351648,-2.5428793,-3.7988183
178,2026-05-11 16:16:39.601931,1.7832139,1.8818171,3.0633495,3.8351648,-2.5428793,-3.7988183
179,2026-05-11 16:16:39.604562,1.7832139,1.8818171,3.0633495,3.8351648,-2.5428793,-3.7988183
180,2026-05-11 16:16:39.607128,1.7832139,1.8818171,3.0633495,3.8351648,-2.5428793,-3.7988183
181,2026-05-11 16:16:39.609716,1.7832139,1.8818171,3.0633495,3.8351648,-2.5428793,-3.7988183
182,2026-05-11 16:16:39.612270,1.7832139,1.8818171,3.0633495,3.8351648,-2.5428793,-3.7988183
183,2026-05-11 16:16:39.615104,1.7832139,1.8818171,3.0633495,3.8351648,-2.5428793,-3.7988183
184,2026-05-11 16:16:39.618124,1.7832139,1.8818171,3.0633495,3.8351648,-2.5428793,-3.7988183
185,2026-05-11 16:16:39.620714,1.7832139,1.8818171,3.0633495,3.8351648,-2.5428793,-3.7988183
186,2026-05-11 16:16:39.623640,1.7832139,1.8818171,3.0633495,3.8351648,-2.5428793,-3.7988183
187,2026-05-11 16:16:39.626252,1.7832139,1.8818171,3.0633495,3.8351648,-2.5428793,-3.7988183
188,2026-05-11 16:16:39.628924,1.7832139,1.8818171,3.0633495,3.8351648,-2.5428793,-3.7988183
189,2026-05-11 16:16:39.631537,1.7832139,1.8818171,3.0633495,3.8351648,-2.5428793,-3.7988183
190,2026-05-11 16:16:39.634897,1.7832139,1.8818171,3.0633495,3.8351648,-2.5428793,-3.7988183
191,2026-05-11 16:16:39.637644,1.7832139,1.8818171,3.0633495,3.8351648,-2.5428793,-3.7988183
192,2026-05-11 16:16:39.640269,1.7832139,1.8818171,3.0633495,3.8351648,-2.5428793,-3.7988183
193,2026-05-11 16:16:39.642878,1.7832139,1.8818171,3.0633495,3.8351648,-2.5428793,-3.7988183
194,2026-05-11 16:16:39.645617,1.7832139,1.8818171,3.0633495,3.8351648,-2.5428793,-3.7988183
195,2026-05-11 16:16:39.648270,1.7832139,1.8818171,3.0633495,3.8351648,-2.5428793,-3.7988183
196,2026-05-11 16:16:39.651701,1.7832139,1.8818171,3.0633495,3.8351648,-2.5428793,-3.7988183
197,2026-05-11 16:16:39.654346,1.7832139,1.8818171,3.0633495,3.8351648,-2.5428793,-3.7988183
198,2026-05-11 16:16:39.656964,1.7832139,1.8818171,3.0633495,3.8351648,-2.5428793,-3.7988183
199,2026-05-11 16:16:39.659553,1.7832139,1.8818171,3.0633495,3.8351648,-2.5428793,-3.7988183
200,2026-05-11 16:16:39.662305,1.7832139,1.8818171,3.0633495,3.8351648,-2.5428793,-3.7988183
201,2026-05-11 16:16:39.665730,1.7832139,1.8818171,3.0633495,3.8351648,-2.5428793,-3.7988183
202,2026-05-11 16:16:39.668531,1.7832139,1.8818171,3.0633495,3.8351648,-2.5428793,-3.7988183
203,2026-05-11 16:16:39.671239,1.7832139,1.8818171,3.0633495,3.8351648,-2.5428793,-3.7988183
204,2026-05-11 16:16:39.673823,1.7832139,1.8818171,3.0633495,3.8351648,-2.5428793,-3.7988183
205,2026-05-11 16:16:39.676530,1.7832139,1.8818171,3.0633495,3.8351648,-2.5428793,-3.7988183
206,2026-05-11 16:16:39.679270,1.7832139,1.8818171,3.0633495,3.8351648,-2.5428793,-3.7988183
207,2026-05-11 16:16:39.682545,1.7832139,1.8818171,3.0633495,3.8351648,-2.5428793,-3.7988183
208,2026-05-11 16:16:39.685443,1.7832139,1.8818171,3.0633495,3.8351648,-2.5428793,-3.7988183
209,2026-05-11 16:16:39.688084,1.7832139,1.8818171,3.0633495,3.8351648,-2.5428793,-3.7988183
210,2026-05-11 16:16:39.690762,1.7832139,1.8818171,3.0633495,3.8351648,-2.5428793,-3.7988183
211,2026-05-11 16:16:39.693360,1.7832139,1.8818171,3.0633495,3.8351648,-2.5428793,-3.7988183
212,2026-05-11 16:16:39.696142,1.7832139,1.8818171,3.0633495,3.8351648,-2.5428793,-3.7988183
213,2026-05-11 16:16:39.698983,1.7832139,1.8818171,3.0633495,3.8351648,-2.5428793,-3.7988183
214,2026-05-11 16:16:39.701868,1.7832139,1.8818171,3.0633495,3.8351648,-2.5428793,-3.7988183
215,2026-05-11 16:16:39.704475,1.7832139,1.8818171,3.0633495,3.8351648,-2.5428793,-3.7988183
216,2026-05-11 16:16:39.707052,1.7832139,1.8818171,3.0633495,3.8351648,-2.5428793,-3.7988183
217,2026-05-11 16:16:39.709628,1.7832139,1.8818171,3.0633495,3.8351648,-2.5428793,-3.7988183
218,2026-05-11 16:16:39.712188,1.7832139,1.8818171,3.0633495,3.8351648,-2.5428793,-3.7988183
219,2026-05-11 16:16:39.715107,1.960968,1.554115,3.0812163,3.9996402,-2.2380576,-4.2029057
220,2026-05-11 16:16:39.718060,1.960968,1.554115,3.0812163,3.9996402,-2.2380576,-4.2029057
221,2026-05-11 16:16:39.720638,1.960968,1.554115,3.0812163,3.9996402,-2.2380576,-4.2029057
222,2026-05-11 16:16:39.723443,1.960968,1.554115,3.0812163,3.9996402,-2.2380576,-4.2029057
223,2026-05-11 16:16:39.726146,1.960968,1.554115,3.0812163,3.9996402,-2.2380576,-4.2029057
224,2026-05-11 16:16:39.728908,1.960968,1.554115,3.0812163,3.9996402,-2.2380576,-4.2029057
225,2026-05-11 16:16:39.731659,1.960968,1.554115,3.0812163,3.9996402,-2.2380576,-4.2029057
226,2026-05-11 16:16:39.734890,1.960968,1.554115,3.0812163,3.9996402,-2.2380576,-4.2029057
227,2026-05-11 16:16:39.737515,1.960968,1.554115,3.0812163,3.9996402,-2.2380576,-4.2029057
228,2026-05-11 16:16:39.740110,1.960968,1.554115,3.0812163,3.9996402,-2.2380576,-4.2029057
229,2026-05-11 16:16:39.742684,1.960968,1.554115,3.0812163,3.9996402,-2.2380576,-4.2029057
230,2026-05-11 16:16:39.745365,1.960968,1.554115,3.0812163,3.9996402,-2.2380576,-4.2029057
231,2026-05-11 16:16:39.748043,1.960968,1.554115,3.0812163,3.9996402,-2.2380576,-4.2029057
232,2026-05-11 16:16:39.751283,1.960968,1.554115,3.0812163,3.9996402,-2.2380576,-4.2029057
233,2026-05-11 16:16:39.754080,1.960968,1.554115,3.0812163,3.8941133,-1.6801848,-4.575839
234,2026-05-11 16:16:39.756799,1.960968,1.554115,3.0812163,3.8941133,-1.6801848,-4.575839
235,2026-05-11 16:16:39.759365,1.960968,1.554115,3.0812163,3.8941133,-1.6801848,-4.575839
236,2026-05-11 16:16:39.761934,1.960968,1.554115,3.0812163,3.8941133,-1.6801848,-4.575839
237,2026-05-11 16:16:39.764489,1.960968,1.554115,3.0812163,3.8941133,-1.6801848,-4.575839
238,2026-05-11 16:16:39.767800,1.960968,1.554115,3.0812163,3.8941133,-1.6801848,-4.575839
239,2026-05-11 16:16:39.770624,1.960968,1.554115,3.0812163,3.8941133,-1.6801848,-4.575839
240,2026-05-11 16:16:39.773214,1.960968,1.554115,3.0812163,3.8941133,-1.6801848,-4.575839
241,2026-05-11 16:16:39.775887,1.960968,1.554115,3.0812163,3.8941133,-1.6801848,-4.575839
242,2026-05-11 16:16:39.778471,1.960968,1.554115,3.0812163,3.8941133,-1.6801848,-4.575839
243,2026-05-11 16:16:39.781018,1.960968,1.554115,3.0812163,3.8941133,-1.6801848,-4.575839
244,2026-05-11 16:16:39.784384,1.960968,1.554115,3.0812163,3.8941133,-1.6801848,-4.575839
245,2026-05-11 16:16:39.787136,1.960968,1.554115,3.0812163,3.8941133,-1.6801848,-4.575839
246,2026-05-11 16:16:39.789760,1.960968,1.554115,3.0812163,3.8941133,-1.6801848,-4.575839
247,2026-05-11 16:16:39.792514,1.960968,1.554115,3.0812163,3.8941133,-1.6801848,-4.575839
248,2026-05-11 16:16:39.795088,1.960968,1.554115,3.0812163,3.8941133,-1.6801848,-4.575839
249,2026-05-11 16:16:39.797882,1.960968,1.554115,3.0812163,3.8941133,-1.6801848,-4.575839
250,2026-05-11 16:16:39.800780,1.960968,1.554115,3.0812163,3.8941133,-1.6801848,-4.575839
251,2026-05-11 16:16:39.803557,1.960968,1.554115,3.0812163,3.8941133,-1.6801848,-4.575839
252,2026-05-11 16:16:39.806119,1.960968,1.554115,3.0812163,3.8941133,-1.6801848,-4.575839
253,2026-05-11 16:16:39.808898,1.960968,1.554115,3.0812163,3.8941133,-1.6801848,-4.575839
254,2026-05-11 16:16:39.811511,1.960968,1.554115,3.0812163,3.8941133,-1.6801848,-4.575839
255,2026-05-11 16:16:39.814082,1.960968,1.554115,3.0812163,3.8941133,-1.6801848,-4.575839
256,2026-05-11 16:16:39.817532,1.960968,1.554115,3.0812163,3.8941133,-1.6801848,-4.575839
257,2026-05-11 16:16:39.820306,1.960968,1.554115,3.0812163,3.8941133,-1.6801848,-4.575839
258,2026-05-11 16:16:39.822920,1.960968,1.554115,3.0812163,3.8941133,-1.6801848,-4.575839
259,2026-05-11 16:16:39.825798,1.8535837,1.3388586,3.1561599,3.8941133,-1.6801848,-4.575839
260,2026-05-11 16:16:39.828528,1.8535837,1.3388586,3.1561599,3.8941133,-1.6801848,-4.575839
261,2026-05-11 16:16:39.831298,1.8535837,1.3388586,3.1561599,3.8941133,-1.6801848,-4.575839
262,2026-05-11 16:16:39.834311,1.8535837,1.3388586,3.1561599,3.8941133,-1.6801848,-4.575839
263,2026-05-11 16:16:39.837034,1.8535837,1.3388586,3.1561599,3.8941133,-1.6801848,-4.575839
264,2026-05-11 16:16:39.839783,1.8535837,1.3388586,3.1561599,3.8941133,-1.6801848,-4.575839
265,2026-05-11 16:16:39.842380,1.8535837,1.3388586,3.1561599,3.8941133,-1.6801848,-4.575839
266,2026-05-11 16:16:39.845094,1.8535837,1.3388586,3.1561599,3.8941133,-1.6801848,-4.575839
267,2026-05-11 16:16:39.847686,1.8535837,1.3388586,3.1561599,3.8941133,-1.6801848,-4.575839
268,2026-05-11 16:16:39.850729,1.8535837,1.3388586,3.1561599,3.8941133,-1.6801848,-4.575839
269,2026-05-11 16:16:39.853466,1.8535837,1.3388586,3.1561599,3.8941133,-1.6801848,-4.575839
270,2026-05-11 16:16:39.856035,1.8535837,1.3388586,3.1561599,3.8941133,-1.6801848,-4.575839
271,2026-05-11 16:16:39.858636,1.8535837,1.3388586,3.1561599,3.8941133,-1.6801848,-4.575839
272,2026-05-11 16:16:39.861299,1.8535837,1.3388586,3.1561599,3.8941133,-1.6801848,-4.575839
273,2026-05-11 16:16:39.863843,1.8535837,1.3388586,3.1561599,3.8941133,-1.6801848,-4.575839
274,2026-05-11 16:16:39.867345,1.8535837,1.3388586,3.1561599,3.8941133,-1.6801848,-4.575839
275,2026-05-11 16:16:39.870108,1.8535837,1.3388586,3.1561599,3.8941133,-1.6801848,-4.575839
276,2026-05-11 16:16:39.872769,1.8535837,1.3388586,3.1561599,3.8941133,-1.6801848,-4.575839
277,2026-05-11 16:16:39.875355,1.8535837,1.3388586,3.1561599,3.8941133,-1.6801848,-4.575839
278,2026-05-11 16:16:39.877924,1.8535837,1.3388586,3.1561599,3.8941133,-1.6801848,-4.575839
279,2026-05-11 16:16:39.880470,1.8535837,1.3388586,3.1561599,3.8941133,-1.6801848,-4.575839
280,2026-05-11 16:16:39.883464,1.8535837,1.3388586,3.1561599,3.8941133,-1.6801848,-4.575839
281,2026-05-11 16:16:39.886340,1.8535837,1.3388586,3.1561599,3.8941133,-1.6801848,-4.575839
282,2026-05-11 16:16:39.888952,1.8535837,1.3388586,3.1561599,3.8941133,-1.6801848,-4.575839
283,2026-05-11 16:16:39.891541,1.8535837,1.3388586,3.1561599,3.8941133,-1.6801848,-4.575839
284,2026-05-11 16:16:39.894120,1.8535837,1.3388586,3.1561599,3.8941133,-1.6801848,-4.575839
285,2026-05-11 16:16:39.896674,1.8535837,1.3388586,3.1561599,3.8941133,-1.6801848,-4.575839
286,2026-05-11 16:16:39.899753,1.8535837,1.3388586,3.1561599,3.8941133,-1.6801848,-4.575839
287,2026-05-11 16:16:39.902455,1.8535837,1.3388586,3.1561599,3.8941133,-1.6801848,-4.575839
288,2026-05-11 16:16:39.905208,1.8535837,1.3388586,3.1561599,3.8941133,-1.6801848,-4.575839
289,2026-05-11 16:16:39.907823,1.8535837,1.3388586,3.1561599,3.8941133,-1.6801848,-4.575839
290,2026-05-11 16:16:39.910519,1.8535837,1.3388586,3.1561599,3.8524218,-1.19134,-4.883562
291,2026-05-11 16:16:39.913246,1.8535837,1.3388586,3.1561599,3.8524218,-1.19134,-4.883562
292,2026-05-11 16:16:39.916354,1.8535837,1.3388586,3.1561599,3.8524218,-1.19134,-4.883562
293,2026-05-11 16:16:39.919125,1.8535837,1.3388586,3.1561599,3.8524218,-1.19134,-4.883562
294,2026-05-11 16:16:39.921790,1.8535837,1.3388586,3.1561599,3.9694023,-0.9433287,-5.065753
295,2026-05-11 16:16:39.924625,1.6870496,1.0498173,3.2778742,3.9694023,-0.9433287,-5.065753
296,2026-05-11 16:16:39.927295,1.6870496,1.0498173,3.2778742,3.9694023,-0.9433287,-5.065753
297,2026-05-11 16:16:39.929934,1.6870496,1.0498173,3.2778742,3.9694023,-0.9433287,-5.065753
298,2026-05-11 16:16:39.933130,1.6870496,1.0498173,3.2778742,3.9694023,-0.9433287,-5.065753
299,2026-05-11 16:16:39.935985,1.6870496,1.0498173,3.2778742,3.9694023,-0.9433287,-5.065753
300,2026-05-11 16:16:39.938680,1.6870496,1.0498173,3.2778742,3.9694023,-0.9433287,-5.065753
301,2026-05-11 16:16:39.941310,1.6870496,1.0498173,3.2778742,3.9694023,-0.9433287,-5.065753
302,2026-05-11 16:16:39.943881,1.6870496,1.0498173,3.2778742,3.9694023,-0.9433287,-5.065753
303,2026-05-11 16:16:39.946551,1.6870496,1.0498173,3.2778742,3.9694023,-0.9433287,-5.065753
304,2026-05-11 16:16:39.949428,1.6870496,1.0498173,3.2778742,3.9694023,-0.9433287,-5.065753
305,2026-05-11 16:16:39.952331,1.6870496,1.0498173,3.2778742,3.9694023,-0.9433287,-5.065753
306,2026-05-11 16:16:39.954945,1.6870496,1.0498173,3.2778742,3.9694023,-0.9433287,-5.065753
307,2026-05-11 16:16:39.957511,1.6870496,1.0498173,3.2778742,3.9694023,-0.9433287,-5.065753
308,2026-05-11 16:16:39.960106,1.6870496,1.0498173,3.2778742,3.9694023,-0.9433287,-5.065753
309,2026-05-11 16:16:39.962657,1.6870496,1.0498173,3.2778742,3.9694023,-0.9433287,-5.065753
310,2026-05-11 16:16:39.965864,1.6870496,1.0498173,3.2778742,3.9694023,-0.9433287,-5.065753
311,2026-05-11 16:16:39.968616,1.6870496,1.0498173,3.2778742,3.9694023,-0.9433287,-5.065753
312,2026-05-11 16:16:39.971198,1.6870496,1.0498173,3.2778742,3.9694023,-0.9433287,-5.065753
313,2026-05-11 16:16:39.973818,1.6870496,1.0498173,3.2778742,3.9694023,-0.9433287,-5.065753
314,2026-05-11 16:16:39.976641,1.6870496,1.0498173,3.2778742,3.9694023,-0.9433287,-5.065753
315,2026-05-11 16:16:39.979218,1.6870496,1.0498173,3.2778742,3.9694023,-0.9433287,-5.065753
316,2026-05-11 16:16:39.982117,1.6870496,1.0498173,3.2778742,3.9694023,-0.9433287,-5.065753
317,2026-05-11 16:16:39.984937,1.6870496,1.0498173,3.2778742,3.9694023,-0.9433287,-5.065753
318,2026-05-11 16:16:39.987530,1.6870496,1.0498173,3.2778742,3.9694023,-0.9433287,-5.065753
319,2026-05-11 16:16:39.990110,1.6870496,1.0498173,3.2778742,3.9694023,-0.9433287,-5.065753
320,2026-05-11 16:16:39.992647,1.6870496,1.0498173,3.2778742,3.9694023,-0.9433287,-5.065753
321,2026-05-11 16:16:39.995346,1.6870496,1.0498173,3.2778742,3.9694023,-0.9433287,-5.065753
322,2026-05-11 16:16:39.997958,1.6870496,1.0498173,3.2778742,3.9694023,-0.9433287,-5.065753
323,2026-05-11 16:16:40.001239,1.6870496,1.0498173,3.2778742,3.9694023,-0.9433287,-5.065753
324,2026-05-11 16:16:40.003952,1.6870496,1.0498173,3.2778742,3.9694023,-0.9433287,-5.065753
325,2026-05-11 16:16:40.006783,1.6870496,1.0498173,3.2778742,3.9694023,-0.9433287,-5.065753
326,2026-05-11 16:16:40.009409,1.6870496,1.0498173,3.2778742,3.9694023,-0.9433287,-5.065753
327,2026-05-11 16:16:40.012093,1.6870496,1.0498173,3.2778742,3.9694023,-0.9433287,-5.065753
328,2026-05-11 16:16:40.014746,1.6870496,1.0498173,3.2778742,3.9694023,-0.9433287,-5.065753
329,2026-05-11 16:16:40.018145,1.6870496,1.0498173,3.2778742,3.9694023,-0.9433287,-5.065753
330,2026-05-11 16:16:40.021021,1.6870496,1.0498173,3.2778742,3.9694023,-0.9433287,-5.065753
331,2026-05-11 16:16:40.023655,1.6870496,1.0498173,3.2778742,3.9694023,-0.9433287,-5.065753
332,2026-05-11 16:16:40.026342,1.6870496,1.0498173,3.2778742,3.9694023,-0.9433287,-5.065753
333,2026-05-11 16:16:40.028943,1.6870496,1.0498173,3.2778742,3.9694023,-0.9433287,-5.065753
334,2026-05-11 16:16:40.032138,1.6870496,1.0498173,3.2778742,3.9694023,-0.9433287,-5.065753
335,2026-05-11 16:16:40.035170,1.6870496,1.0498173,3.2778742,3.9694023,-0.9433287,-5.065753
336,2026-05-11 16:16:40.037822,1.6870496,1.0498173,3.2778742,3.9694023,-0.9433287,-5.065753
337,2026-05-11 16:16:40.040389,1.6870496,1.0498173,3.2778742,3.9694023,-0.9433287,-5.065753
338,2026-05-11 16:16:40.043150,1.6870496,1.0498173,3.2778742,3.9694023,-0.9433287,-5.065753
339,2026-05-11 16:16:40.045857,1.6870496,1.0498173,3.2778742,3.9694023,-0.9433287,-5.065753
340,2026-05-11 16:16:40.049064,1.6870496,1.0498173,3.2778742,3.9694023,-0.9433287,-5.065753
341,2026-05-11 16:16:40.052102,1.6870496,1.0498173,3.2778742,3.9694023,-0.9433287,-5.065753
342,2026-05-11 16:16:40.054841,1.6870496,1.0498173,3.2778742,3.9694023,-0.9433287,-5.065753
343,2026-05-11 16:16:40.057457,1.6870496,1.0498173,3.2778742,3.9694023,-0.9433287,-5.065753
344,2026-05-11 16:16:40.060214,1.4803913,0.78108215,3.4238582,3.9694023,-0.9433287,-5.065753
345,2026-05-11 16:16:40.062870,1.4803913,0.78108215,3.4238582,3.9694023,-0.9433287,-5.065753
346,2026-05-11 16:16:40.065870,1.4803913,0.78108215,3.4238582,3.9694023,-0.9433287,-5.065753
347,2026-05-11 16:16:40.068875,1.4803913,0.78108215,3.4238582,4.309807,-0.85811293,-5.151121
348,2026-05-11 16:16:40.071595,1.4803913,0.78108215,3.4238582,4.309807,-0.85811293,-5.151121
349,2026-05-11 16:16:40.074313,1.4803913,0.78108215,3.4238582,4.309807,-0.85811293,-5.151121
350,2026-05-11 16:16:40.077051,1.4803913,0.78108215,3.4238582,4.309807,-0.85811293,-5.151121
351,2026-05-11 16:16:40.079636,1.4803913,0.78108215,3.4238582,4.309807,-0.85811293,-5.151121
352,2026-05-11 16:16:40.082791,1.4803913,0.78108215,3.4238582,4.309807,-0.85811293,-5.151121
353,2026-05-11 16:16:40.085427,1.4803913,0.78108215,3.4238582,4.309807,-0.85811293,-5.151121
354,2026-05-11 16:16:40.087942,1.4803913,0.78108215,3.4238582,4.309807,-0.85811293,-5.151121
355,2026-05-11 16:16:40.090657,1.4803913,0.78108215,3.4238582,4.309807,-0.85811293,-5.151121
356,2026-05-11 16:16:40.093235,1.4803913,0.78108215,3.4238582,4.309807,-0.85811293,-5.151121
357,2026-05-11 16:16:40.095986,1.4803913,0.78108215,3.4238582,4.309807,-0.85811293,-5.151121
358,2026-05-11 16:16:40.098948,1.4803913,0.78108215,3.4238582,4.309807,-0.85811293,-5.151121
359,2026-05-11 16:16:40.101769,1.4803913,0.78108215,3.4238582,4.309807,-0.85811293,-5.151121
360,2026-05-11 16:16:40.104428,1.4803913,0.78108215,3.4238582,4.309807,-0.85811293,-5.151121
361,2026-05-11 16:16:40.107141,1.4803913,0.78108215,3.4238582,4.309807,-0.85811293,-5.151121
362,2026-05-11 16:16:40.109769,1.4803913,0.78108215,3.4238582,4.309807,-0.85811293,-5.151121
363,2026-05-11 16:16:40.112290,1.4803913,0.78108215,3.4238582,4.309807,-0.85811293,-5.151121
364,2026-05-11 16:16:40.115285,1.4803913,0.78108215,3.4238582,4.309807,-0.85811293,-5.151121
365,2026-05-11 16:16:40.117968,1.4803913,0.78108215,3.4238582,4.309807,-0.85811293,-5.151121
366,2026-05-11 16:16:40.120542,1.4803913,0.78108215,3.4238582,4.309807,-0.85811293,-5.151121
367,2026-05-11 16:16:40.123189,1.4803913,0.78108215,3.4238582,4.309807,-0.85811293,-5.151121
368,2026-05-11 16:16:40.125734,1.4803913,0.78108215,3.4238582,4.309807,-0.85811293,-5.151121
369,2026-05-11 16:16:40.128365,1.4803913,0.78108215,3.4238582,4.309807,-0.85811293,-5.151121
370,2026-05-11 16:16:40.130905,1.4803913,0.78108215,3.4238582,4.309807,-0.85811293,-5.151121
371,2026-05-11 16:16:40.134066,1.4803913,0.78108215,3.4238582,4.309807,-0.85811293,-5.151121
372,2026-05-11 16:16:40.136749,1.4803913,0.78108215,3.4238582,4.309807,-0.85811293,-5.151121
373,2026-05-11 16:16:40.139517,1.4803913,0.78108215,3.4238582,4.309807,-0.85811293,-5.151121
374,2026-05-11 16:16:40.142074,1.4803913,0.78108215,3.4238582,4.309807,-0.85811293,-5.151121
375,2026-05-11 16:16:40.144624,1.4803913,0.78108215,3.4238582,4.309807,-0.85811293,-5.151121
376,2026-05-11 16:16:40.147380,1.4803913,0.78108215,3.4238582,4.309807,-0.85811293,-5.151121
377,2026-05-11 16:16:40.150488,1.2334865,0.4850283,3.5028875,4.309807,-0.85811293,-5.151121
378,2026-05-11 16:16:40.153414,1.2334865,0.4850283,3.5028875,4.309807,-0.85811293,-5.151121
379,2026-05-11 16:16:40.156030,1.2334865,0.4850283,3.5028875,4.309807,-0.85811293,-5.151121
380,2026-05-11 16:16:40.158601,1.2334865,0.4850283,3.5028875,4.309807,-0.85811293,-5.151121
381,2026-05-11 16:16:40.161344,1.2334865,0.4850283,3.5028875,4.309807,-0.85811293,-5.151121
382,2026-05-11 16:16:40.163967,1.2334865,0.4850283,3.5028875,4.309807,-0.85811293,-5.151121
383,2026-05-11 16:16:40.167182,1.2334865,0.4850283,3.5028875,4.309807,-0.85811293,-5.151121
384,2026-05-11 16:16:40.170063,1.2334865,0.4850283,3.5028875,4.309807,-0.85811293,-5.151121
385,2026-05-11 16:16:40.172739,1.2334865,0.4850283,3.5028875,4.309807,-0.85811293,-5.151121
386,2026-05-11 16:16:40.175330,1.2334865,0.4850283,3.5028875,4.309807,-0.85811293,-5.151121
387,2026-05-11 16:16:40.178078,1.2334865,0.4850283,3.5028875,4.309807,-0.85811293,-5.151121
388,2026-05-11 16:16:40.180659,1.2334865,0.4850283,3.5028875,4.309807,-0.85811293,-5.151121
389,2026-05-11 16:16:40.183595,1.2334865,0.4850283,3.5028875,4.309807,-0.85811293,-5.151121
390,2026-05-11 16:16:40.186576,1.2334865,0.4850283,3.5028875,4.309807,-0.85811293,-5.151121
391,2026-05-11 16:16:40.189199,1.2334865,0.4850283,3.5028875,4.309807,-0.85811293,-5.151121
392,2026-05-11 16:16:40.191793,1.2334865,0.4850283,3.5028875,4.309807,-0.85811293,-5.151121
393,2026-05-11 16:16:40.194385,1.2334865,0.4850283,3.5028875,4.309807,-0.85811293,-5.151121
394,2026-05-11 16:16:40.196944,1.2334865,0.4850283,3.5028875,4.309807,-0.85811293,-5.151121
395,2026-05-11 16:16:40.200076,1.2334865,0.4850283,3.5028875,4.309807,-0.85811293,-5.151121
396,2026-05-11 16:16:40.202720,1.2334865,0.4850283,3.5028875,4.309807,-0.85811293,-5.151121
397,2026-05-11 16:16:40.205362,1.2334865,0.4850283,3.5028875,4.309807,-0.85811293,-5.151121
398,2026-05-11 16:16:40.208162,1.2334865,0.4850283,3.5028875,5.232519,-1.1160508,-5.074916
399,2026-05-11 16:16:40.210780,1.2334865,0.4850283,3.5028875,5.232519,-1.1160508,-5.074916
400,2026-05-11 16:16:40.213323,1.2334865,0.4850283,3.5028875,5.232519,-1.1160508,-5.074916
401,2026-05-11 16:16:40.216288,1.2334865,0.4850283,3.5028875,5.232519,-1.1160508,-5.074916
402,2026-05-11 16:16:40.218927,1.2334865,0.4850283,3.5028875,5.232519,-1.1160508,-5.074916
403,2026-05-11 16:16:40.221475,1.2334865,0.4850283,3.5028875,5.232519,-1.1160508,-5.074916
404,2026-05-11 16:16:40.224267,1.2334865,0.4850283,3.5028875,5.232519,-1.1160508,-5.074916
405,2026-05-11 16:16:40.227013,1.2334865,0.4850283,3.5028875,5.232519,-1.1160508,-5.074916
406,2026-05-11 16:16:40.229593,1.2334865,0.4850283,3.5028875,5.232519,-1.1160508,-5.074916
407,2026-05-11 16:16:40.232583,1.2334865,0.4850283,3.5028875,5.232519,-1.1160508,-5.074916
408,2026-05-11 16:16:40.235532,1.2334865,0.4850283,3.5028875,5.232519,-1.1160508,-5.074916
409,2026-05-11 16:16:40.238169,1.2334865,0.4850283,3.5028875,5.232519,-1.1160508,-5.074916
410,2026-05-11 16:16:40.240755,1.2334865,0.4850283,3.5028875,5.232519,-1.1160508,-5.074916
411,2026-05-11 16:16:40.243504,1.2334865,0.4850283,3.5028875,5.232519,-1.1160508,-5.074916
412,2026-05-11 16:16:40.246165,1.2334865,0.4850283,3.5028875,5.232519,-1.1160508,-5.074916
413,2026-05-11 16:16:40.275373,0.60399866,-1.6363759,0.76291037,5.9617395,-2.286316,-6.6732445
414,2026-05-11 16:16:40.278624,0.60399866,-1.6363759,0.76291037,5.9617395,-2.286316,-6.6732445
415,2026-05-11 16:16:40.286181,0.60399866,-1.6363759,0.76291037,5.9617395,-2.286316,-6.6732445
416,2026-05-11 16:16:40.289329,0.60399866,-1.6363759,0.76291037,5.9617395,-2.286316,-6.6732445
417,2026-05-11 16:16:40.292173,0.60399866,-1.6363759,0.76291037,5.9617395,-2.286316,-6.6732445
418,2026-05-11 16:16:40.294769,0.60399866,-1.6363759,0.76291037,5.9617395,-2.286316,-6.6732445
419,2026-05-11 16:16:40.297356,0.60399866,-1.6363759,0.76291037,5.9617395,-2.286316,-6.6732445
420,2026-05-11 16:16:40.300462,0.60399866,-1.6363759,0.76291037,5.9617395,-2.286316,-6.6732445
421,2026-05-11 16:16:40.303178,0.60399866,-1.6363759,0.76291037,5.9617395,-2.286316,-6.6732445
422,2026-05-11 16:16:40.305793,0.60399866,-1.6363759,0.76291037,5.9617395,-2.286316,-6.6732445
423,2026-05-11 16:16:40.308541,0.60399866,-1.6363759,0.76291037,5.9617395,-2.286316,-6.6732445
424,2026-05-11 16:16:40.311184,0.60399866,-1.6363759,0.76291037,5.9617395,-2.286316,-6.6732445
425,2026-05-11 16:16:40.314041,0.60399866,-1.6363759,0.76291037,5.9617395,-2.286316,-6.6732445
426,2026-05-11 16:16:40.317111,0.60399866,-1.6363759,0.76291037,5.9617395,-2.286316,-6.6732445
427,2026-05-11 16:16:40.319915,0.60399866,-1.6363759,0.76291037,5.9617395,-2.286316,-6.6732445
428,2026-05-11 16:16:40.322640,0.2593444,-2.1789076,0.20732918,5.4710617,-2.663525,-5.850409
429,2026-05-11 16:16:40.325213,0.2593444,-2.1789076,0.20732918,5.4710617,-2.663525,-5.850409
430,2026-05-11 16:16:40.327994,0.2593444,-2.1789076,0.20732918,5.4710617,-2.663525,-5.850409
431,2026-05-11 16:16:40.330584,0.2593444,-2.1789076,0.20732918,5.4710617,-2.663525,-5.850409
432,2026-05-11 16:16:40.333622,0.2593444,-2.1789076,0.20732918,5.4710617,-2.663525,-5.850409
433,2026-05-11 16:16:40.336499,0.2593444,-2.1789076,0.20732918,5.4710617,-2.663525,-5.850409
434,2026-05-11 16:16:40.339109,0.2593444,-2.1789076,0.20732918,5.4710617,-2.663525,-5.850409
435,2026-05-11 16:16:40.341717,0.2593444,-2.1789076,0.20732918,5.4710617,-2.663525,-5.850409
436,2026-05-11 16:16:40.344369,0.2593444,-2.1789076,0.20732918,5.4710617,-2.663525,-5.850409
437,2026-05-11 16:16:40.346928,0.2593444,-2.1789076,0.20732918,5.4710617,-2.663525,-5.850409
438,2026-05-11 16:16:40.350017,0.2593444,-2.1789076,0.20732918,5.4710617,-2.663525,-5.850409
439,2026-05-11 16:16:40.352681,0.2593444,-2.1789076,0.20732918,5.4710617,-2.663525,-5.850409
440,2026-05-11 16:16:40.355438,0.2593444,-2.1789076,0.20732918,5.4710617,-2.663525,-5.850409
441,2026-05-11 16:16:40.358026,0.2593444,-2.1789076,0.20732918,5.4710617,-2.663525,-5.850409
442,2026-05-11 16:16:40.360752,0.2593444,-2.1789076,0.20732918,5.4710617,-2.663525,-5.850409
443,2026-05-11 16:16:40.363325,0.2593444,-2.1789076,0.20732918,5.4710617,-2.663525,-5.850409
444,2026-05-11 16:16:40.366536,0.2593444,-2.1789076,0.20732918,5.4710617,-2.663525,-5.850409
445,2026-05-11 16:16:40.369297,0.2593444,-2.1789076,0.20732918,5.4710617,-2.663525,-5.850409
446,2026-05-11 16:16:40.372059,0.2593444,-2.1789076,0.20732918,5.4710617,-2.663525,-5.850409
447,2026-05-11 16:16:40.374721,0.2593444,-2.1789076,0.20732918,5.4710617,-2.663525,-5.850409
448,2026-05-11 16:16:40.377344,0.2593444,-2.1789076,0.20732918,5.4710617,-2.663525,-5.850409
449,2026-05-11 16:16:40.380153,0.2593444,-2.1789076,0.20732918,5.4710617,-2.663525,-5.850409
450,2026-05-11 16:16:40.383429,0.2593444,-2.1789076,0.20732918,5.4710617,-2.663525,-5.850409
451,2026-05-11 16:16:40.386218,0.2593444,-2.1789076,0.20732918,5.4710617,-2.663525,-5.850409
452,2026-05-11 16:16:40.388849,0.2593444,-2.1789076,0.20732918,5.4710617,-2.663525,-5.850409
453,2026-05-11 16:16:40.391469,0.2593444,-2.1789076,0.20732918,5.035515,-2.5350907,-5.608812
454,2026-05-11 16:16:40.394332,0.2593444,-2.1789076,0.20732918,5.035515,-2.5350907,-5.608812
455,2026-05-11 16:16:40.397035,0.2593444,-2.1789076,0.20732918,5.035515,-2.5350907,-5.608812
456,2026-05-11 16:16:40.400000,0.2593444,-2.1789076,0.20732918,5.035515,-2.5350907,-5.608812
457,2026-05-11 16:16:40.402873,0.2593444,-2.1789076,0.20732918,5.035515,-2.5350907,-5.608812
458,2026-05-11 16:16:40.405666,0.2593444,-2.1789076,0.20732918,5.035515,-2.5350907,-5.608812
459,2026-05-11 16:16:40.408287,0.2593444,-2.1789076,0.20732918,5.035515,-2.5350907,-5.608812
460,2026-05-11 16:16:40.410962,0.2593444,-2.1789076,0.20732918,5.035515,-2.5350907,-5.608812
461,2026-05-11 16:16:40.413543,0.2593444,-2.1789076,0.20732918,5.035515,-2.5350907,-5.608812
462,2026-05-11 16:16:40.416633,0.2593444,-2.1789076,0.20732918,5.035515,-2.5350907,-5.608812
463,2026-05-11 16:16:40.419590,0.2593444,-2.1789076,0.20732918,5.035515,-2.5350907,-5.608812
464,2026-05-11 16:16:40.422269,0.2593444,-2.1789076,0.20732918,5.035515,-2.5350907,-5.608812
465,2026-05-11 16:16:40.424870,0.2593444,-2.1789076,0.20732918,5.035515,-2.5350907,-5.608812
466,2026-05-11 16:16:40.427459,0.2593444,-2.1789076,0.20732918,5.035515,-2.5350907,-5.608812
467,2026-05-11 16:16:40.429994,0.2593444,-2.1789076,0.20732918,5.035515,-2.5350907,-5.608812
468,2026-05-11 16:16:40.432952,0.2593444,-2.1789076,0.20732918,5.035515,-2.5350907,-5.608812
469,2026-05-11 16:16:40.435680,0.2593444,-2.1789076,0.20732918,5.035515,-2.5350907,-5.608812
470,2026-05-11 16:16:40.438263,0.2593444,-2.1789076,0.20732918,5.035515,-2.5350907,-5.608812
471,2026-05-11 16:16:40.441085,0.2593444,-2.1789076,0.20732918,5.035515,-2.5350907,-5.608812
472,2026-05-11 16:16:40.443711,0.2593444,-2.1789076,0.20732918,5.035515,-2.5350907,-5.608812
473,2026-05-11 16:16:40.446413,0.2593444,-2.1789076,0.20732918,5.035515,-2.5350907,-5.608812
474,2026-05-11 16:16:40.449525,0.2593444,-2.1789076,0.20732918,5.035515,-2.5350907,-5.608812
475,2026-05-11 16:16:40.452219,0.2593444,-2.1789076,0.20732918,5.035515,-2.5350907,-5.608812
476,2026-05-11 16:16:40.454832,0.2593444,-2.1789076,0.20732918,5.035515,-2.5350907,-5.608812
477,2026-05-11 16:16:40.457463,0.17244908,-2.2657418,0.1348859,5.035515,-2.5350907,-5.608812
478,2026-05-11 16:16:40.460008,0.17244908,-2.2657418,0.1348859,5.035515,-2.5350907,-5.608812
479,2026-05-11 16:16:40.462716,0.17244908,-2.2657418,0.1348859,5.035515,-2.5350907,-5.608812
480,2026-05-11 16:16:40.465663,0.17244908,-2.2657418,0.1348859,5.035515,-2.5350907,-5.608812
481,2026-05-11 16:16:40.468569,0.17244908,-2.2657418,0.1348859,5.035515,-2.5350907,-5.608812
482,2026-05-11 16:16:40.471258,0.17244908,-2.2657418,0.1348859,5.035515,-2.5350907,-5.608812
483,2026-05-11 16:16:40.473987,0.17244908,-2.2657418,0.1348859,5.035515,-2.5350907,-5.608812
484,2026-05-11 16:16:40.476998,0.17244908,-2.2657418,0.1348859,5.035515,-2.5350907,-5.608812
485,2026-05-11 16:16:40.479741,0.17244908,-2.2657418,0.1348859,5.035515,-2.5350907,-5.608812
486,2026-05-11 16:16:40.482931,0.17244908,-2.2657418,0.1348859,5.035515,-2.5350907,-5.608812
487,2026-05-11 16:16:40.485790,0.17244908,-2.2657418,0.1348859,5.035515,-2.5350907,-5.608812
488,2026-05-11 16:16:40.488416,0.17244908,-2.2657418,0.1348859,5.035515,-2.5350907,-5.608812
489,2026-05-11 16:16:40.491026,0.17244908,-2.2657418,0.1348859,5.035515,-2.5350907,-5.608812
490,2026-05-11 16:16:40.493602,0.17244908,-2.2657418,0.1348859,5.035515,-2.5350907,-5.608812
491,2026-05-11 16:16:40.496164,0.17244908,-2.2657418,0.1348859,5.035515,-2.5350907,-5.608812
492,2026-05-11 16:16:40.499170,0.17244908,-2.2657418,0.1348859,5.035515,-2.5350907,-5.608812
493,2026-05-11 16:16:40.501918,0.17244908,-2.2657418,0.1348859,5.035515,-2.5350907,-5.608812
494,2026-05-11 16:16:40.504530,0.17244908,-2.2657418,0.1348859,5.035515,-2.5350907,-5.608812
495,2026-05-11 16:16:40.507336,0.17244908,-2.2657418,0.1348859,5.035515,-2.5350907,-5.608812
496,2026-05-11 16:16:40.510093,0.17244908,-2.2657418,0.1348859,5.035515,-2.5350907,-5.608812
497,2026-05-11 16:16:40.512717,0.17244908,-2.2657418,0.1348859,5.035515,-2.5350907,-5.608812
498,2026-05-11 16:16:40.515872,0.17244908,-2.2657418,0.1348859,5.035515,-2.5350907,-5.608812
499,2026-05-11 16:16:40.518913,0.17244908,-2.2657418,0.1348859,5.035515,-2.5350907,-5.608812
500,2026-05-11 16:16:40.521734,0.17244908,-2.2657418,0.1348859,5.035515,-2.5350907,-5.608812
501,2026-05-11 16:16:40.524462,0.17244908,-2.2657418,0.1348859,5.035515,-2.5350907,-5.608812
502,2026-05-11 16:16:40.527074,0.17244908,-2.2657418,0.1348859,5.035515,-2.5350907,-5.608812
503,2026-05-11 16:16:40.529778,0.17244908,-2.2657418,0.1348859,5.035515,-2.5350907,-5.608812
504,2026-05-11 16:16:40.532648,0.17244908,-2.2657418,0.1348859,5.035515,-2.5350907,-5.608812
505,2026-05-11 16:16:40.535563,0.17244908,-2.2657418,0.1348859,5.035515,-2.5350907,-5.608812
506,2026-05-11 16:16:40.538186,0.17244908,-2.2657418,0.1348859,5.035515,-2.5350907,-5.608812
507,2026-05-11 16:16:40.540793,0.17244908,-2.2657418,0.1348859,5.035515,-2.5350907,-5.608812
508,2026-05-11 16:16:40.543350,0.17244908,-2.2657418,0.1348859,5.035515,-2.5350907,-5.608812
509,2026-05-11 16:16:40.546075,0.17244908,-2.2657418,0.1348859,5.035515,-2.5350907,-5.608812
510,2026-05-11 16:16:40.549067,0.17244908,-2.2657418,0.1348859,5.035515,-2.5350907,-5.608812
511,2026-05-11 16:16:40.552107,0.17244908,-2.2657418,0.1348859,5.035515,-2.5350907,-5.608812
512,2026-05-11 16:16:40.554793,0.17244908,-2.2657418,0.1348859,5.035515,-2.5350907,-5.608812
513,2026-05-11 16:16:40.557429,0.17244908,-2.2657418,0.1348859,5.035515,-2.5350907,-5.608812
514,2026-05-11 16:16:40.560285,-0.29349273,-2.9132187,-0.16866837,2.7440066,-1.2889256,-4.640285
515,2026-05-11 16:16:40.562900,-0.29349273,-2.9132187,-0.16866837,2.7440066,-1.2889256,-4.640285
516,2026-05-11 16:16:40.566055,-0.29349273,-2.9132187,-0.16866837,2.7440066,-1.2889256,-4.640285
517,2026-05-11 16:16:40.568905,-0.29349273,-2.9132187,-0.16866837,2.7440066,-1.2889256,-4.640285
518,2026-05-11 16:16:40.571656,-0.7429092,-3.2126265,-0.11817763,2.7440066,-1.2889256,-4.640285
519,2026-05-11 16:16:40.574367,-0.7429092,-3.2126265,-0.11817763,2.7440066,-1.2889256,-4.640285
520,2026-05-11 16:16:40.577150,-0.7429092,-3.2126265,-0.11817763,2.7440066,-1.2889256,-4.640285
521,2026-05-11 16:16:40.579798,-0.7429092,-3.2126265,-0.11817763,2.7440066,-1.2889256,-4.640285
522,2026-05-11 16:16:40.583069,-0.7429092,-3.2126265,-0.11817763,2.7440066,-1.2889256,-4.640285
523,2026-05-11 16:16:40.585933,-0.7429092,-3.2126265,-0.11817763,2.7440066,-1.2889256,-4.640285
524,2026-05-11 16:16:40.588586,-0.7429092,-3.2126265,-0.11817763,2.7440066,-1.2889256,-4.640285
525,2026-05-11 16:16:40.591306,-0.7429092,-3.2126265,-0.11817763,2.7440066,-1.2889256,-4.640285
526,2026-05-11 16:16:40.593910,-0.7429092,-3.2126265,-0.11817763,2.7440066,-1.2889256,-4.640285
527,2026-05-11 16:16:40.596591,-0.7429092,-3.2126265,-0.11817763,2.7440066,-1.2889256,-4.640285
528,2026-05-11 16:16:40.599620,-0.7429092,-3.2126265,-0.11817763,2.7440066,-1.2889256,-4.640285
529,2026-05-11 16:16:40.602440,-0.7429092,-3.2126265,-0.11817763,2.7440066,-1.2889256,-4.640285
530,2026-05-11 16:16:40.605039,-0.7429092,-3.2126265,-0.11817763,2.7440066,-1.2889256,-4.640285
531,2026-05-11 16:16:40.607881,-0.7429092,-3.2126265,-0.11817763,2.7440066,-1.2889256,-4.640285
532,2026-05-11 16:16:40.610666,-0.7429092,-3.2126265,-0.11817763,2.7440066,-1.2889256,-4.640285
533,2026-05-11 16:16:40.613426,-0.7429092,-3.2126265,-0.11817763,0.8491027,-0.00290161,-3.6161695
534,2026-05-11 16:16:40.616529,-0.7429092,-3.2126265,-0.11817763,0.8491027,-0.00290161,-3.6161695
535,2026-05-11 16:16:40.619355,-0.7429092,-3.2126265,-0.11817763,0.8491027,-0.00290161,-3.6161695
536,2026-05-11 16:16:40.622146,-0.7429092,-3.2126265,-0.11817763,0.8491027,-0.00290161,-3.6161695
537,2026-05-11 16:16:40.624825,-0.7429092,-3.2126265,-0.11817763,0.8491027,-0.00290161,-3.6161695
538,2026-05-11 16:16:40.627405,-0.7429092,-3.2126265,-0.11817763,0.8491027,-0.00290161,-3.6161695
539,2026-05-11 16:16:40.630168,-0.7429092,-3.2126265,-0.11817763,0.8491027,-0.00290161,-3.6161695
540,2026-05-11 16:16:40.633421,-0.7429092,-3.2126265,-0.11817763,0.8491027,-0.00290161,-3.6161695
541,2026-05-11 16:16:40.636238,-0.7429092,-3.2126265,-0.11817763,0.8491027,-0.00290161,-3.6161695
542,2026-05-11 16:16:40.638939,-0.7429092,-3.2126265,-0.11817763,0.8491027,-0.00290161,-3.6161695
543,2026-05-11 16:16:40.641613,-0.7429092,-3.2126265,-0.11817763,0.8491027,-0.00290161,-3.6161695
544,2026-05-11 16:16:40.644205,-0.7429092,-3.2126265,-0.11817763,0.8491027,-0.00290161,-3.6161695
545,2026-05-11 16:16:40.646963,-0.7429092,-3.2126265,-0.11817763,0.8491027,-0.00290161,-3.6161695
546,2026-05-11 16:16:40.649933,-0.7429092,-3.2126265,-0.11817763,0.8491027,-0.00290161,-3.6161695
547,2026-05-11 16:16:40.652837,-0.7429092,-3.2126265,-0.11817763,0.8491027,-0.00290161,-3.6161695
548,2026-05-11 16:16:40.655606,-0.7429092,-3.2126265,-0.11817763,0.8491027,-0.00290161,-3.6161695
549,2026-05-11 16:16:40.658408,-0.7429092,-3.2126265,-0.11817763,0.8491027,-0.00290161,-3.6161695
550,2026-05-11 16:16:40.661034,-0.7429092,-3.2126265,-0.11817763,0.8491027,-0.00290161,-3.6161695
551,2026-05-11 16:16:40.663603,-0.7429092,-3.2126265,-0.11817763,0.8491027,-0.00290161,-3.6161695
552,2026-05-11 16:16:40.666858,-0.7429092,-3.2126265,-0.11817763,0.8491027,-0.00290161,-3.6161695
553,2026-05-11 16:16:40.669591,-0.7429092,-3.2126265,-0.11817763,0.8491027,-0.00290161,-3.6161695
554,2026-05-11 16:16:40.672204,-0.7429092,-3.2126265,-0.11817763,0.8491027,-0.00290161,-3.6161695
555,2026-05-11 16:16:40.674779,-0.9490188,-3.351659,0.0009146876,-0.16814066,0.7779369,-2.8736627
556,2026-05-11 16:16:40.677479,-0.9490188,-3.351659,0.0009146876,-1.5656476,2.0662518,-1.2812898
557,2026-05-11 16:16:40.680050,-0.9490188,-3.351659,0.0009146876,-1.5656476,2.0662518,-1.2812898
558,2026-05-11 16:16:40.683274,-0.9490188,-3.351659,0.0009146876,-1.5656476,2.0662518,-1.2812898
559,2026-05-11 16:16:40.686022,-0.9490188,-3.351659,0.0009146876,-1.5656476,2.0662518,-1.2812898
560,2026-05-11 16:16:40.688799,-0.9490188,-3.351659,0.0009146876,-1.5656476,2.0662518,-1.2812898
561,2026-05-11 16:16:40.691519,-0.9490188,-3.351659,0.0009146876,-1.5656476,2.0662518,-1.2812898
562,2026-05-11 16:16:40.694218,-0.9490188,-3.351659,0.0009146876,-1.5656476,2.0662518,-1.2812898
563,2026-05-11 16:16:40.697013,-0.9490188,-3.351659,0.0009146876,-1.5656476,2.0662518,-1.2812898
564,2026-05-11 16:16:40.700088,-0.9490188,-3.351659,0.0009146876,-1.5656476,2.0662518,-1.2812898
565,2026-05-11 16:16:40.702810,-0.9490188,-3.351659,0.0009146876,-1.5656476,2.0662518,-1.2812898
566,2026-05-11 16:16:40.705399,-0.9490188,-3.351659,0.0009146876,-1.5656476,2.0662518,-1.2812898
567,2026-05-11 16:16:40.708206,-0.9490188,-3.351659,0.0009146876,-1.5656476,2.0662518,-1.2812898
568,2026-05-11 16:16:40.710837,-0.9490188,-3.351659,0.0009146876,-1.5656476,2.0662518,-1.2812898
569,2026-05-11 16:16:40.713412,-0.9490188,-3.351659,0.0009146876,-1.5656476,2.0662518,-1.2812898
570,2026-05-11 16:16:40.716519,-0.9490188,-3.351659,0.0009146876,-1.5656476,2.0662518,-1.2812898
571,2026-05-11 16:16:40.719195,-0.9490188,-3.351659,0.0009146876,-1.5656476,2.0662518,-1.2812898
572,2026-05-11 16:16:40.721837,-0.9490188,-3.351659,0.0009146876,-1.5656476,2.0662518,-1.2812898
573,2026-05-11 16:16:40.724418,-0.9490188,-3.351659,0.0009146876,-1.5656476,2.0662518,-1.2812898
574,2026-05-11 16:16:40.727279,-0.9490188,-3.351659,0.0009146876,-1.5656476,2.0662518,-1.2812898
575,2026-05-11 16:16:40.729917,-0.9490188,-3.351659,0.0009146876,-1.5656476,2.0662518,-1.2812898
576,2026-05-11 16:16:40.732977,-0.9490188,-3.351659,0.0009146876,-1.5656476,2.0662518,-1.2812898
577,2026-05-11 16:16:40.735661,-0.9490188,-3.351659,0.0009146876,-1.5656476,2.0662518,-1.2812898
578,2026-05-11 16:16:40.738274,-0.9490188,-3.351659,0.0009146876,-1.5656476,2.0662518,-1.2812898
579,2026-05-11 16:16:40.740822,-0.9490188,-3.351659,0.0009146876,-1.5656476,2.0662518,-1.2812898
580,2026-05-11 16:16:40.743554,-1.1960454,-3.4942284,0.286785,-1.5656476,2.0662518,-1.2812898
581,2026-05-11 16:16:40.746113,-1.1960454,-3.4942284,0.286785,-1.5656476,2.0662518,-1.2812898
582,2026-05-11 16:16:40.749212,-1.1960454,-3.4942284,0.286785,-1.5656476,2.0662518,-1.2812898
583,2026-05-11 16:16:40.751967,-1.1960454,-3.4942284,0.286785,-1.5656476,2.0662518,-1.2812898
584,2026-05-11 16:16:40.754813,-1.1960454,-3.4942284,0.286785,-1.5656476,2.0662518,-1.2812898
585,2026-05-11 16:16:40.757433,-1.1960454,-3.4942284,0.286785,-1.5656476,2.0662518,-1.2812898
586,2026-05-11 16:16:40.760107,-1.1960454,-3.4942284,0.286785,-1.5656476,2.0662518,-1.2812898
587,2026-05-11 16:16:40.762807,-1.1960454,-3.4942284,0.286785,-1.5656476,2.0662518,-1.2812898
588,2026-05-11 16:16:40.765845,-1.1960454,-3.4942284,0.286785,-1.5656476,2.0662518,-1.2812898
589,2026-05-11 16:16:40.768809,-1.1960454,-3.4942284,0.286785,-1.5656476,2.0662518,-1.2812898
590,2026-05-11 16:16:40.771543,-1.1981796,-3.5439262,0.37861964,-2.482251,3.3554828,1.1209377
591,2026-05-11 16:16:40.774323,-1.1981796,-3.5439262,0.37861964,-2.482251,3.3554828,1.1209377
592,2026-05-11 16:16:40.776951,-1.1981796,-3.5439262,0.37861964,-2.482251,3.3554828,1.1209377
593,2026-05-11 16:16:40.779530,-1.1981796,-3.5439262,0.37861964,-2.482251,3.3554828,1.1209377
594,2026-05-11 16:16:40.782832,-1.1667753,-3.336841,0.49130917,-2.482251,3.3554828,1.1209377
595,2026-05-11 16:16:40.785916,-1.1667753,-3.336841,0.49130917,-2.482251,3.3554828,1.1209377
596,2026-05-11 16:16:40.788593,-1.1667753,-3.336841,0.49130917,-2.482251,3.3554828,1.1209377
597,2026-05-11 16:16:40.791181,-1.1667753,-3.336841,0.49130917,-2.482251,3.3554828,1.1209377
598,2026-05-11 16:16:40.793788,-1.1667753,-3.336841,0.49130917,-2.482251,3.3554828,1.1209377
599,2026-05-11 16:16:40.796407,-1.1667753,-3.336841,0.49130917,-2.482251,3.3554828,1.1209377
600,2026-05-11 16:16:40.799545,-1.1667753,-3.336841,0.49130917,-2.482251,3.3554828,1.1209377
601,2026-05-11 16:16:40.802267,-1.1667753,-3.336841,0.49130917,-2.482251,3.3554828,1.1209377
602,2026-05-11 16:16:40.805013,-1.1667753,-3.336841,0.49130917,-2.482251,3.3554828,1.1209377
603,2026-05-11 16:16:40.807818,-1.1667753,-3.336841,0.49130917,-2.482251,3.3554828,1.1209377
604,2026-05-11 16:16:40.810467,-1.1667753,-3.336841,0.49130917,-2.482251,3.3554828,1.1209377
605,2026-05-11 16:16:40.813096,-1.1667753,-3.336841,0.49130917,-2.482251,3.3554828,1.1209377
606,2026-05-11 16:16:40.815977,-1.1667753,-3.336841,0.49130917,-2.482251,3.3554828,1.1209377
607,2026-05-11 16:16:40.818723,-1.1667753,-3.336841,0.49130917,-2.482251,3.3554828,1.1209377
608,2026-05-11 16:16:40.821336,-1.1667753,-3.336841,0.49130917,-2.482251,3.3554828,1.1209377
609,2026-05-11 16:16:40.823908,-1.1667753,-3.336841,0.49130917,-2.482251,3.3554828,1.1209377
610,2026-05-11 16:16:40.826655,-1.1667753,-3.336841,0.49130917,-2.482251,3.3554828,1.1209377
611,2026-05-11 16:16:40.829222,-1.1667753,-3.336841,0.49130917,-2.482251,3.3554828,1.1209377
612,2026-05-11 16:16:40.832028,-1.1667753,-3.336841,0.49130917,-2.482251,3.3554828,1.1209377
613,2026-05-11 16:16:40.835048,-1.1667753,-3.336841,0.49130917,-2.482251,3.3554828,1.1209377
614,2026-05-11 16:16:40.837638,-1.1667753,-3.336841,0.49130917,-2.482251,3.3554828,1.1209377
615,2026-05-11 16:16:40.840309,-1.1667753,-3.336841,0.49130917,-2.482251,3.3554828,1.1209377
616,2026-05-11 16:16:40.842983,-1.1667753,-3.336841,0.49130917,-2.482251,3.3554828,1.1209377
617,2026-05-11 16:16:40.845553,-1.1667753,-3.336841,0.49130917,-2.482251,3.3554828,1.1209377
618,2026-05-11 16:16:40.848152,-1.1667753,-3.336841,0.49130917,-2.482251,3.3554828,1.1209377
619,2026-05-11 16:16:40.851519,-1.1667753,-3.336841,0.49130917,-2.482251,3.3554828,1.1209377
620,2026-05-11 16:16:40.854299,-1.1667753,-3.336841,0.49130917,-2.482251,3.3554828,1.1209377
621,2026-05-11 16:16:40.856939,-1.1667753,-3.336841,0.49130917,-2.482251,3.3554828,1.1209377
622,2026-05-11 16:16:40.859530,-1.1667753,-3.336841,0.49130917,-2.482251,3.3554828,1.1209377
623,2026-05-11 16:16:40.862136,-1.1667753,-3.336841,0.49130917,-2.482251,3.3554828,1.1209377
624,2026-05-11 16:16:40.864708,-1.1667753,-3.336841,0.49130917,-2.482251,3.3554828,1.1209377
625,2026-05-11 16:16:40.868176,-1.1667753,-3.336841,0.49130917,-2.482251,3.3554828,1.1209377
626,2026-05-11 16:16:40.871050,-1.1667753,-3.336841,0.49130917,-2.482251,3.3554828,1.1209377
627,2026-05-11 16:16:40.873708,-1.1667753,-3.336841,0.49130917,-2.482251,3.3554828,1.1209377
628,2026-05-11 16:16:40.876285,-1.1667753,-3.336841,0.49130917,-2.482251,3.3554828,1.1209377
629,2026-05-11 16:16:40.878918,-1.1667753,-3.336841,0.49130917,-2.482251,3.3554828,1.1209377
630,2026-05-11 16:16:40.881571,-0.9943873,-3.1209748,0.5753385,-2.482251,3.3554828,1.1209377
631,2026-05-11 16:16:40.884903,-0.9943873,-3.1209748,0.5753385,-2.482251,3.3554828,1.1209377
632,2026-05-11 16:16:40.887695,-0.9943873,-3.1209748,0.5753385,-2.482251,3.3554828,1.1209377
633,2026-05-11 16:16:40.890332,-0.9943873,-3.1209748,0.5753385,-2.482251,3.3554828,1.1209377
634,2026-05-11 16:16:40.893192,-0.9943873,-3.1209748,0.5753385,-2.424066,3.578296,2.1146626
635,2026-05-11 16:16:40.895911,-0.7973026,-2.9190118,0.57180166,-2.2638667,3.631441,2.57159
636,2026-05-11 16:16:40.899162,-0.7973026,-2.9190118,0.57180166,-2.2638667,3.631441,2.57159
637,2026-05-11 16:16:40.902055,-0.7973026,-2.9190118,0.57180166,-2.2638667,3.631441,2.57159
638,2026-05-11 16:16:40.904750,-0.7973026,-2.9190118,0.57180166,-2.2638667,3.631441,2.57159
639,2026-05-11 16:16:40.907523,-0.7973026,-2.9190118,0.57180166,-2.2638667,3.631441,2.57159
640,2026-05-11 16:16:40.910403,-0.6655876,-2.3251967,0.2321477,-2.0448713,3.6511416,3.8084393
641,2026-05-11 16:16:40.913154,-0.6655876,-2.3251967,0.2321477,-2.0448713,3.6511416,3.8084393
642,2026-05-11 16:16:40.916290,-0.6655876,-2.3251967,0.2321477,-2.0448713,3.6511416,3.8084393
643,2026-05-11 16:16:40.919084,-0.6502209,-2.1793344,0.09579827,-2.0448713,3.6511416,3.8084393
644,2026-05-11 16:16:40.921666,-0.6502209,-2.1793344,0.09579827,-2.0448713,3.6511416,3.8084393
645,2026-05-11 16:16:40.924487,-0.6502209,-2.1793344,0.09579827,-2.0448713,3.6511416,3.8084393
646,2026-05-11 16:16:40.927294,-0.6502209,-2.1793344,0.09579827,-2.0448713,3.6511416,3.8084393
647,2026-05-11 16:16:40.930087,-0.6502209,-2.1793344,0.09579827,-2.0448713,3.6511416,3.8084393
648,2026-05-11 16:16:40.933260,-0.6502209,-2.1793344,0.09579827,-2.0448713,3.6511416,3.8084393
649,2026-05-11 16:16:40.936002,-0.6502209,-2.1793344,0.09579827,-2.0448713,3.6511416,3.8084393
650,2026-05-11 16:16:40.938601,-0.6502209,-2.1793344,0.09579827,-2.0448713,3.6511416,3.8084393
651,2026-05-11 16:16:40.941381,-0.6502209,-2.1793344,0.09579827,-2.0448713,3.6511416,3.8084393
652,2026-05-11 16:16:40.944176,-0.6502209,-2.1793344,0.09579827,-2.0448713,3.6511416,3.8084393
653,2026-05-11 16:16:40.946979,-0.6502209,-2.1793344,0.09579827,-2.0448713,3.6511416,3.8084393
654,2026-05-11 16:16:40.950116,-0.6502209,-2.1793344,0.09579827,-2.0448713,3.6511416,3.8084393
655,2026-05-11 16:16:40.952883,-0.6502209,-2.1793344,0.09579827,-2.0448713,3.6511416,3.8084393
656,2026-05-11 16:16:40.955651,-0.6502209,-2.1793344,0.09579827,-2.0448713,3.6511416,3.8084393
657,2026-05-11 16:16:40.958408,-0.6502209,-2.1793344,0.09579827,-2.0448713,3.6511416,3.8084393
658,2026-05-11 16:16:40.961074,-0.6502209,-2.1793344,0.09579827,-2.0448713,3.6511416,3.8084393
659,2026-05-11 16:16:40.963909,-0.6502209,-2.1793344,0.09579827,-2.0448713,3.6511416,3.8084393
660,2026-05-11 16:16:40.966997,-0.6502209,-2.1793344,0.09579827,-2.3480134,3.7056613,4.245666
661,2026-05-11 16:16:40.969740,-0.6502209,-2.1793344,0.09579827,-2.3480134,3.7056613,4.245666
662,2026-05-11 16:16:40.972372,-0.6502209,-2.1793344,0.09579827,-2.3480134,3.7056613,4.245666
663,2026-05-11 16:16:40.975146,-0.6502209,-2.1793344,0.09579827,-2.3480134,3.7056613,4.245666
664,2026-05-11 16:16:40.977766,-0.6502209,-2.1793344,0.09579827,-2.3480134,3.7056613,4.245666
665,2026-05-11 16:16:40.980373,-0.6502209,-2.1793344,0.09579827,-2.3480134,3.7056613,4.245666
666,2026-05-11 16:16:40.983534,-0.6502209,-2.1793344,0.09579827,-2.3480134,3.7056613,4.245666
667,2026-05-11 16:16:40.986226,-0.6502209,-2.1793344,0.09579827,-2.3480134,3.7056613,4.245666
668,2026-05-11 16:16:40.988811,-0.6502209,-2.1793344,0.09579827,-2.3480134,3.7056613,4.245666
669,2026-05-11 16:16:40.991594,-0.6502209,-2.1793344,0.09579827,-2.3480134,3.7056613,4.245666
670,2026-05-11 16:16:40.994186,-0.6502209,-2.1793344,0.09579827,-2.3480134,3.7056613,4.245666
671,2026-05-11 16:16:40.996833,-0.6502209,-2.1793344,0.09579827,-2.3480134,3.7056613,4.245666
672,2026-05-11 16:16:40.999935,-0.6502209,-2.1793344,0.09579827,-2.3480134,3.7056613,4.245666
673,2026-05-11 16:16:41.002868,-0.6502209,-2.1793344,0.09579827,-2.3480134,3.7056613,4.245666
674,2026-05-11 16:16:41.005590,-0.6502209,-2.1793344,0.09579827,-2.3480134,3.7056613,4.245666
675,2026-05-11 16:16:41.008287,-0.6404032,-2.1448202,0.06280854,-2.600606,3.7841575,4.4727554
676,2026-05-11 16:16:41.011036,-0.6404032,-2.1448202,0.06280854,-2.600606,3.7841575,4.4727554
677,2026-05-11 16:16:41.013630,-0.6404032,-2.1448202,0.06280854,-2.600606,3.7841575,4.4727554
678,2026-05-11 16:16:41.016745,-0.6404032,-2.1448202,0.06280854,-2.600606,3.7841575,4.4727554
679,2026-05-11 16:16:41.019580,-0.6404032,-2.1448202,0.06280854,-2.600606,3.7841575,4.4727554
680,2026-05-11 16:16:41.022166,-0.6404032,-2.1448202,0.06280854,-2.600606,3.7841575,4.4727554
681,2026-05-11 16:16:41.024857,-0.6404032,-2.1448202,0.06280854,-2.600606,3.7841575,4.4727554
682,2026-05-11 16:16:41.027591,-0.6404032,-2.1448202,0.06280854,-2.600606,3.7841575,4.4727554
683,2026-05-11 16:16:41.030213,-0.6404032,-2.1448202,0.06280854,-2.600606,3.7841575,4.4727554
684,2026-05-11 16:16:41.033269,-0.6404032,-2.1448202,0.06280854,-2.600606,3.7841575,4.4727554
685,2026-05-11 16:16:41.035978,-0.6404032,-2.1448202,0.06280854,-2.600606,3.7841575,4.4727554
686,2026-05-11 16:16:41.038564,-0.6404032,-2.1448202,0.06280854,-2.600606,3.7841575,4.4727554
687,2026-05-11 16:16:41.041388,-0.6404032,-2.1448202,0.06280854,-2.600606,3.7841575,4.4727554
688,2026-05-11 16:16:41.044208,-0.6404032,-2.1448202,0.06280854,-2.600606,3.7841575,4.4727554
689,2026-05-11 16:16:41.046841,-0.6404032,-2.1448202,0.06280854,-2.600606,3.7841575,4.4727554
690,2026-05-11 16:16:41.049891,-0.51039565,-1.7879701,-0.10951859,-2.600606,3.7841575,4.4727554
691,2026-05-11 16:16:41.052784,-0.51039565,-1.7879701,-0.10951859,-2.600606,3.7841575,4.4727554
692,2026-05-11 16:16:41.055506,-0.51039565,-1.7879701,-0.10951859,-2.600606,3.7841575,4.4727554
693,2026-05-11 16:16:41.058215,-0.51039565,-1.7879701,-0.10951859,-2.600606,3.7841575,4.4727554
694,2026-05-11 16:16:41.060806,-0.51039565,-1.7879701,-0.10951859,-2.600606,3.7841575,4.4727554
695,2026-05-11 16:16:41.063555,-0.51039565,-1.7879701,-0.10951859,-3.9742892,4.088521,5.244431
696,2026-05-11 16:16:41.066581,-0.51039565,-1.7879701,-0.10951859,-3.9742892,4.088521,5.244431
697,2026-05-11 16:16:41.069268,-0.51039565,-1.7879701,-0.10951859,-3.9742892,4.088521,5.244431
698,2026-05-11 16:16:41.071880,-0.51039565,-1.7879701,-0.10951859,-3.9742892,4.088521,5.244431
699,2026-05-11 16:16:41.074744,-0.22592781,-1.6003982,-0.131715,-5.8229203,4.3698244,5.968001
700,2026-05-11 16:16:41.077473,-0.22592781,-1.6003982,-0.131715,-5.8229203,4.3698244,5.968001
701,2026-05-11 16:16:41.080160,-0.22592781,-1.6003982,-0.131715,-5.8229203,4.3698244,5.968001
702,2026-05-11 16:16:41.083296,-0.22592781,-1.6003982,-0.131715,-5.8229203,4.3698244,5.968001
703,2026-05-11 16:16:41.086147,-0.22592781,-1.6003982,-0.131715,-5.8229203,4.3698244,5.968001
704,2026-05-11 16:16:41.088927,-0.22592781,-1.6003982,-0.131715,-5.8229203,4.3698244,5.968001
705,2026-05-11 16:16:41.091506,-0.22592781,-1.6003982,-0.131715,-5.8229203,4.3698244,5.968001
706,2026-05-11 16:16:41.094216,-0.22592781,-1.6003982,-0.131715,-5.8229203,4.3698244,5.968001
707,2026-05-11 16:16:41.097114,0.007866313,-1.5621033,0.037746105,-7.2294374,4.5587344,6.395301
708,2026-05-11 16:16:41.099983,0.007866313,-1.5621033,0.037746105,-7.2294374,4.5587344,6.395301
709,2026-05-11 16:16:41.103494,0.007866313,-1.5621033,0.037746105,-7.2294374,4.5587344,6.395301
710,2026-05-11 16:16:41.106152,0.007866313,-1.5621033,0.037746105,-7.2294374,4.5587344,6.395301
711,2026-05-11 16:16:41.108816,0.007866313,-1.5621033,0.037746105,-7.2294374,4.5587344,6.395301
712,2026-05-11 16:16:41.111600,0.007866313,-1.5621033,0.037746105,-7.2294374,4.5587344,6.395301
713,2026-05-11 16:16:41.114457,0.007866313,-1.5621033,0.037746105,-7.2294374,4.5587344,6.395301
714,2026-05-11 16:16:41.117673,0.007866313,-1.5621033,0.037746105,-7.2294374,4.5587344,6.395301
715,2026-05-11 16:16:41.120695,0.007866313,-1.5621033,0.037746105,-7.2294374,4.5587344,6.395301
716,2026-05-11 16:16:41.123436,0.24568506,-1.4999655,0.38209546,-7.2294374,4.5587344,6.395301
717,2026-05-11 16:16:41.126132,0.24568506,-1.4999655,0.38209546,-7.2294374,4.5587344,6.395301
718,2026-05-11 16:16:41.128766,0.24568506,-1.4999655,0.38209546,-7.2294374,4.5587344,6.395301
719,2026-05-11 16:16:41.131468,0.24568506,-1.4999655,0.38209546,-7.2294374,4.5587344,6.395301
720,2026-05-11 16:16:41.134722,0.24568506,-1.4999655,0.38209546,-7.2294374,4.5587344,6.395301
721,2026-05-11 16:16:41.137361,0.24568506,-1.4999655,0.38209546,-7.2294374,4.5587344,6.395301
722,2026-05-11 16:16:41.140160,0.24568506,-1.4999655,0.38209546,-7.2294374,4.5587344,6.395301
723,2026-05-11 16:16:41.142893,0.24568506,-1.4999655,0.38209546,-8.794627,4.742758,6.890102
724,2026-05-11 16:16:41.145718,0.24568506,-1.4999655,0.38209546,-8.794627,4.742758,6.890102
725,2026-05-11 16:16:41.148778,0.24568506,-1.4999655,0.38209546,-8.794627,4.742758,6.890102
726,2026-05-11 16:16:41.151950,0.24568506,-1.4999655,0.38209546,-8.794627,4.742758,6.890102
727,2026-05-11 16:16:41.154586,0.24568506,-1.4999655,0.38209546,-8.794627,4.742758,6.890102
728,2026-05-11 16:16:41.157200,0.24568506,-1.4999655,0.38209546,-8.794627,4.742758,6.890102
729,2026-05-11 16:16:41.159795,0.24568506,-1.4999655,0.38209546,-8.794627,4.742758,6.890102
730,2026-05-11 16:16:41.162513,0.24568506,-1.4999655,0.38209546,-8.794627,4.742758,6.890102
731,2026-05-11 16:16:41.165563,0.24568506,-1.4999655,0.38209546,-8.794627,4.742758,6.890102
732,2026-05-11 16:16:41.168425,0.24568506,-1.4999655,0.38209546,-8.794627,4.742758,6.890102
733,2026-05-11 16:16:41.171022,0.24568506,-1.4999655,0.38209546,-8.794627,4.742758,6.890102
734,2026-05-11 16:16:41.173941,0.4411843,-1.4572802,0.6571115,-8.794627,4.742758,6.890102
735,2026-05-11 16:16:41.176732,0.4411843,-1.4572802,0.6571115,-9.796751,4.738329,7.2891498
736,2026-05-11 16:16:41.179510,0.4411843,-1.4572802,0.6571115,-9.796751,4.738329,7.2891498
737,2026-05-11 16:16:41.182732,0.4411843,-1.4572802,0.6571115,-9.796751,4.738329,7.2891498
738,2026-05-11 16:16:41.185503,0.4411843,-1.4572802,0.6571115,-9.796751,4.738329,7.2891498
739,2026-05-11 16:16:41.188269,0.4411843,-1.4572802,0.6571115,-9.796751,4.738329,7.2891498
740,2026-05-11 16:16:41.190884,0.4411843,-1.4572802,0.6571115,-9.796751,4.738329,7.2891498
741,2026-05-11 16:16:41.193424,0.4411843,-1.4572802,0.6571115,-9.796751,4.738329,7.2891498
742,2026-05-11 16:16:41.196211,0.4411843,-1.4572802,0.6571115,-9.796751,4.738329,7.2891498
743,2026-05-11 16:16:41.199498,0.4411843,-1.4572802,0.6571115,-9.796751,4.738329,7.2891498
744,2026-05-11 16:16:41.202478,0.4411843,-1.4572802,0.6571115,-10.712286,4.485278,7.717213
745,2026-05-11 16:16:41.205200,0.4411843,-1.4572802,0.6571115,-10.712286,4.485278,7.717213
746,2026-05-11 16:16:41.207951,0.4411843,-1.4572802,0.6571115,-10.712286,4.485278,7.717213
747,2026-05-11 16:16:41.210661,0.4411843,-1.4572802,0.6571115,-10.712286,4.485278,7.717213
748,2026-05-11 16:16:41.213291,0.4411843,-1.4572802,0.6571115,-10.712286,4.485278,7.717213
749,2026-05-11 16:16:41.216471,0.4411843,-1.4572802,0.6571115,-10.712286,4.485278,7.717213
750,2026-05-11 16:16:41.219236,0.4411843,-1.4572802,0.6571115,-10.712286,4.485278,7.717213
751,2026-05-11 16:16:41.221822,0.4411843,-1.4572802,0.6571115,-10.712286,4.485278,7.717213
752,2026-05-11 16:16:41.224702,0.4411843,-1.4572802,0.6571115,-10.712286,4.485278,7.717213
753,2026-05-11 16:16:41.227342,0.4411843,-1.4572802,0.6571115,-10.712286,4.485278,7.717213
754,2026-05-11 16:16:41.230154,0.98078895,-1.3478225,1.0962834,-10.712286,4.485278,7.717213
755,2026-05-11 16:16:41.233107,0.98078895,-1.3478225,1.0962834,-10.712286,4.485278,7.717213
756,2026-05-11 16:16:41.243738,0.98078895,-1.3478225,1.0962834,-10.712286,4.485278,7.717213
757,2026-05-11 16:16:41.262437,0.98078895,-1.3478225,1.0962834,-10.712286,4.485278,7.717213
758,2026-05-11 16:16:41.268047,0.98078895,-1.3478225,1.0962834,-10.712286,4.485278,7.717213
759,2026-05-11 16:16:41.274159,0.98078895,-1.3478225,1.0962834,-10.712286,4.485278,7.717213
760,2026-05-11 16:16:41.277018,0.98078895,-1.3478225,1.0962834,-10.712286,4.485278,7.717213
761,2026-05-11 16:16:41.279619,0.98078895,-1.3478225,1.0962834,-10.712286,4.485278,7.717213
762,2026-05-11 16:16:41.282570,0.98078895,-1.3478225,1.0962834,-10.712286,4.485278,7.717213
763,2026-05-11 16:16:41.285326,0.98078895,-1.3478225,1.0962834,-10.712286,4.485278,7.717213
764,2026-05-11 16:16:41.288063,1.5195398,-1.1844593,1.6801591,-10.829267,3.794542,7.539604
765,2026-05-11 16:16:41.290700,1.5195398,-1.1844593,1.6801591,-10.829267,3.794542,7.539604
766,2026-05-11 16:16:41.293632,1.5195398,-1.1844593,1.6801591,-10.829267,3.794542,7.539604
767,2026-05-11 16:16:41.296382,1.5195398,-1.1844593,1.6801591,-10.829267,3.794542,7.539604
768,2026-05-11 16:16:41.299513,1.5195398,-1.1844593,1.6801591,-10.829267,3.794542,7.539604
769,2026-05-11 16:16:41.302273,1.5195398,-1.1844593,1.6801591,-10.829267,3.794542,7.539604
770,2026-05-11 16:16:41.305020,1.5195398,-1.1844593,1.6801591,-10.829267,3.794542,7.539604
771,2026-05-11 16:16:41.307622,1.5195398,-1.1844593,1.6801591,-10.829267,3.794542,7.539604
772,2026-05-11 16:16:41.310440,1.5195398,-1.1844593,1.6801591,-10.829267,3.794542,7.539604
773,2026-05-11 16:16:41.313165,1.7408333,-0.9866429,2.1942134,-10.159911,3.0428724,7.1362805
774,2026-05-11 16:16:41.316270,1.7408333,-0.9866429,2.1942134,-10.159911,3.0428724,7.1362805
775,2026-05-11 16:16:41.319124,1.7408333,-0.9866429,2.1942134,-8.668178,2.0749564,6.60101
776,2026-05-11 16:16:41.321803,1.7408333,-0.9866429,2.1942134,-8.668178,2.0749564,6.60101
777,2026-05-11 16:16:41.324404,1.7408333,-0.9866429,2.1942134,-8.668178,2.0749564,6.60101
778,2026-05-11 16:16:41.326994,1.7408333,-0.9866429,2.1942134,-8.668178,2.0749564,6.60101
779,2026-05-11 16:16:41.329724,1.7408333,-0.9866429,2.1942134,-8.668178,2.0749564,6.60101
780,2026-05-11 16:16:41.332697,1.7408333,-0.9866429,2.1942134,-8.668178,2.0749564,6.60101
781,2026-05-11 16:16:41.335570,1.7408333,-0.9866429,2.1942134,-8.668178,2.0749564,6.60101
782,2026-05-11 16:16:41.338202,1.7408333,-0.9866429,2.1942134,-8.668178,2.0749564,6.60101
783,2026-05-11 16:16:41.340817,1.7408333,-0.9866429,2.1942134,-8.668178,2.0749564,6.60101
784,2026-05-11 16:16:41.343612,1.7408333,-0.9866429,2.1942134,-8.668178,2.0749564,6.60101
785,2026-05-11 16:16:41.346227,1.7408333,-0.9866429,2.1942134,-8.668178,2.0749564,6.60101
786,2026-05-11 16:16:41.349219,1.7408333,-0.9866429,2.1942134,-8.668178,2.0749564,6.60101
787,2026-05-11 16:16:41.351935,1.7408333,-0.9866429,2.1942134,-8.668178,2.0749564,6.60101
788,2026-05-11 16:16:41.354518,1.7408333,-0.9866429,2.1942134,-8.668178,2.0749564,6.60101
789,2026-05-11 16:16:41.357267,1.7408333,-0.9866429,2.1942134,-8.668178,2.0749564,6.60101
790,2026-05-11 16:16:41.359970,1.7408333,-0.9866429,2.1942134,-8.668178,2.0749564,6.60101
791,2026-05-11 16:16:41.362663,1.7408333,-0.9866429,2.1942134,-8.668178,2.0749564,6.60101
792,2026-05-11 16:16:41.365771,1.8366925,-0.76522756,2.4649,-8.668178,2.0749564,6.60101
793,2026-05-11 16:16:41.368694,1.8366925,-0.76522756,2.4649,-8.668178,2.0749564,6.60101
794,2026-05-11 16:16:41.371424,1.8366925,-0.76522756,2.4649,-8.668178,2.0749564,6.60101
795,2026-05-11 16:16:41.374200,1.8366925,-0.76522756,2.4649,-8.668178,2.0749564,6.60101
796,2026-05-11 16:16:41.376850,1.8366925,-0.76522756,2.4649,-8.668178,2.0749564,6.60101
797,2026-05-11 16:16:41.379680,1.8366925,-0.76522756,2.4649,-8.668178,2.0749564,6.60101
798,2026-05-11 16:16:41.382738,1.8366925,-0.76522756,2.4649,-8.668178,2.0749564,6.60101
799,2026-05-11 16:16:41.385539,1.8366925,-0.76522756,2.4649,-8.668178,2.0749564,6.60101
800,2026-05-11 16:16:41.388246,1.8366925,-0.76522756,2.4649,-8.668178,2.0749564,6.60101
801,2026-05-11 16:16:41.391024,1.5709454,-0.33782458,2.2726934,-5.431203,0.42119157,5.8317776
802,2026-05-11 16:16:41.393756,1.5709454,-0.33782458,2.2726934,-5.431203,0.42119157,5.8317776
803,2026-05-11 16:16:41.396341,1.5709454,-0.33782458,2.2726934,-5.431203,0.42119157,5.8317776
804,2026-05-11 16:16:41.399444,1.5709454,-0.33782458,2.2726934,-5.431203,0.42119157,5.8317776
805,2026-05-11 16:16:41.402302,1.5709454,-0.33782458,2.2726934,-5.431203,0.42119157,5.8317776
806,2026-05-11 16:16:41.404935,1.5709454,-0.33782458,2.2726934,-5.431203,0.42119157,5.8317776
807,2026-05-11 16:16:41.407713,1.5709454,-0.33782458,2.2726934,-5.431203,0.42119157,5.8317776
808,2026-05-11 16:16:41.410472,1.5709454,-0.33782458,2.2726934,-5.431203,0.42119157,5.8317776
809,2026-05-11 16:16:41.413238,1.5709454,-0.33782458,2.2726934,-5.431203,0.42119157,5.8317776
810,2026-05-11 16:16:41.416152,1.5709454,-0.33782458,2.2726934,-5.431203,0.42119157,5.8317776
811,2026-05-11 16:16:41.418862,1.5709454,-0.33782458,2.2726934,-5.431203,0.42119157,5.8317776
812,2026-05-11 16:16:41.421440,1.5709454,-0.33782458,2.2726934,-5.431203,0.42119157,5.8317776
813,2026-05-11 16:16:41.423990,1.5709454,-0.33782458,2.2726934,-5.431203,0.42119157,5.8317776
814,2026-05-11 16:16:41.426784,1.5709454,-0.33782458,2.2726934,-5.431203,0.42119157,5.8317776
815,2026-05-11 16:16:41.429384,1.5709454,-0.33782458,2.2726934,-5.431203,0.42119157,5.8317776
816,2026-05-11 16:16:41.432461,1.5709454,-0.33782458,2.2726934,-5.431203,0.42119157,5.8317776
817,2026-05-11 16:16:41.435386,1.5709454,-0.33782458,2.2726934,-4.0937133,-0.39003745,5.958838
818,2026-05-11 16:16:41.438007,1.5709454,-0.33782458,2.2726934,-4.0937133,-0.39003745,5.958838
819,2026-05-11 16:16:41.440772,1.5709454,-0.33782458,2.2726934,-4.0937133,-0.39003745,5.958838
820,2026-05-11 16:16:41.443364,1.5709454,-0.33782458,2.2726934,-4.0937133,-0.39003745,5.958838
821,2026-05-11 16:16:41.446064,1.5709454,-0.33782458,2.2726934,-4.0937133,-0.39003745,5.958838
822,2026-05-11 16:16:41.448951,1.5709454,-0.33782458,2.2726934,-4.0937133,-0.39003745,5.958838
823,2026-05-11 16:16:41.451930,1.5709454,-0.33782458,2.2726934,-4.0937133,-0.39003745,5.958838
824,2026-05-11 16:16:41.454610,1.5709454,-0.33782458,2.2726934,-4.0937133,-0.39003745,5.958838
825,2026-05-11 16:16:41.457208,1.5709454,-0.33782458,2.2726934,-4.0937133,-0.39003745,5.958838
826,2026-05-11 16:16:41.460111,1.5709454,-0.33782458,2.2726934,-4.0937133,-0.39003745,5.958838
827,2026-05-11 16:16:41.462722,1.5709454,-0.33782458,2.2726934,-4.0937133,-0.39003745,5.958838
828,2026-05-11 16:16:41.465868,1.5709454,-0.33782458,2.2726934,-4.0937133,-0.39003745,5.958838
829,2026-05-11 16:16:41.468881,1.5709454,-0.33782458,2.2726934,-4.0937133,-0.39003745,5.958838
830,2026-05-11 16:16:41.471690,1.3858736,-0.0837244,1.8607793,-4.0937133,-0.39003745,5.958838
831,2026-05-11 16:16:41.474419,1.3858736,-0.0837244,1.8607793,-4.0937133,-0.39003745,5.958838
832,2026-05-11 16:16:41.477160,1.3858736,-0.0837244,1.8607793,-3.8432586,-0.6088799,6.1847053
833,2026-05-11 16:16:41.479863,1.3858736,-0.0837244,1.8607793,-3.8432586,-0.6088799,6.1847053
834,2026-05-11 16:16:41.482978,1.3858736,-0.0837244,1.8607793,-3.8432586,-0.6088799,6.1847053
835,2026-05-11 16:16:41.485762,1.3858736,-0.0837244,1.8607793,-3.8432586,-0.6088799,6.1847053
836,2026-05-11 16:16:41.488400,1.4370351,0.17196125,1.197082,-3.8432586,-0.6088799,6.1847053
837,2026-05-11 16:16:41.491179,1.4370351,0.17196125,1.197082,-3.8432586,-0.6088799,6.1847053
838,2026-05-11 16:16:41.493966,1.6716218,0.24958774,0.8034005,-4.892114,-0.04352415,6.3426137
839,2026-05-11 16:16:41.496604,1.6716218,0.24958774,0.8034005,-4.892114,-0.04352415,6.3426137
840,2026-05-11 16:16:41.499520,1.6716218,0.24958774,0.8034005,-4.892114,-0.04352415,6.3426137
841,2026-05-11 16:16:41.502276,1.6716218,0.24958774,0.8034005,-4.892114,-0.04352415,6.3426137
842,2026-05-11 16:16:41.504868,1.6716218,0.24958774,0.8034005,-4.892114,-0.04352415,6.3426137
843,2026-05-11 16:16:41.507461,1.6716218,0.24958774,0.8034005,-4.892114,-0.04352415,6.3426137
844,2026-05-11 16:16:41.510350,1.6716218,0.24958774,0.8034005,-4.892114,-0.04352415,6.3426137
845,2026-05-11 16:16:41.513139,2.188847,0.30629835,0.8036444,-4.892114,-0.04352415,6.3426137
846,2026-05-11 16:16:41.516353,2.188847,0.30629835,0.8036444,-4.892114,-0.04352415,6.3426137
847,2026-05-11 16:16:41.519246,2.188847,0.30629835,0.8036444,-4.892114,-0.04352415,6.3426137
848,2026-05-11 16:16:41.522045,2.188847,0.30629835,0.8036444,-4.892114,-0.04352415,6.3426137
849,2026-05-11 16:16:41.524700,2.188847,0.30629835,0.8036444,-4.892114,-0.04352415,6.3426137
850,2026-05-11 16:16:41.527459,2.188847,0.30629835,0.8036444,-4.892114,-0.04352415,6.3426137
851,2026-05-11 16:16:41.530204,2.188847,0.30629835,0.8036444,-4.892114,-0.04352415,6.3426137
852,2026-05-11 16:16:41.533218,2.188847,0.30629835,0.8036444,-4.892114,-0.04352415,6.3426137
853,2026-05-11 16:16:41.536043,2.188847,0.30629835,0.8036444,-6.1468315,0.6892087,6.0996423
854,2026-05-11 16:16:41.538750,2.2897677,0.27727225,1.0542079,-7.404603,1.4355333,5.2181635
855,2026-05-11 16:16:41.541331,2.2897677,0.27727225,1.0542079,-7.404603,1.4355333,5.2181635
856,2026-05-11 16:16:41.543971,2.2897677,0.27727225,1.0542079,-7.404603,1.4355333,5.2181635
857,2026-05-11 16:16:41.546535,2.2897677,0.27727225,1.0542079,-7.404603,1.4355333,5.2181635
858,2026-05-11 16:16:41.549581,2.2897677,0.27727225,1.0542079,-7.404603,1.4355333,5.2181635
859,2026-05-11 16:16:41.552447,2.2897677,0.27727225,1.0542079,-7.404603,1.4355333,5.2181635
860,2026-05-11 16:16:41.555038,2.2897677,0.27727225,1.0542079,-7.404603,1.4355333,5.2181635
861,2026-05-11 16:16:41.557636,2.2897677,0.27727225,1.0542079,-7.404603,1.4355333,5.2181635
862,2026-05-11 16:16:41.560364,2.2897677,0.27727225,1.0542079,-7.404603,1.4355333,5.2181635
863,2026-05-11 16:16:41.562977,2.2897677,0.27727225,1.0542079,-7.404603,1.4355333,5.2181635
864,2026-05-11 16:16:41.566108,2.2897677,0.27727225,1.0542079,-7.404603,1.4355333,5.2181635
865,2026-05-11 16:16:41.568825,2.2897677,0.27727225,1.0542079,-7.404603,1.4355333,5.2181635
866,2026-05-11 16:16:41.571552,2.2897677,0.27727225,1.0542079,-7.404603,1.4355333,5.2181635
867,2026-05-11 16:16:41.574149,2.2897677,0.27727225,1.0542079,-7.404603,1.4355333,5.2181635
868,2026-05-11 16:16:41.577030,2.2897677,0.27727225,1.0542079,-7.404603,1.4355333,5.2181635
869,2026-05-11 16:16:41.579729,2.2897677,0.27727225,1.0542079,-7.404603,1.4355333,5.2181635
870,2026-05-11 16:16:41.582913,2.2897677,0.27727225,1.0542079,-7.404603,1.4355333,5.2181635
871,2026-05-11 16:16:41.585831,2.2897677,0.27727225,1.0542079,-7.404603,1.4355333,5.2181635
872,2026-05-11 16:16:41.588535,2.2897677,0.27727225,1.0542079,-7.404603,1.4355333,5.2181635
873,2026-05-11 16:16:41.591125,2.2897677,0.27727225,1.0542079,-7.404603,1.4355333,5.2181635
874,2026-05-11 16:16:41.593916,2.2897677,0.27727225,1.0542079,-8.119315,1.7082846,4.308738
875,2026-05-11 16:16:41.596506,2.2897677,0.27727225,1.0542079,-8.119315,1.7082846,4.308738
876,2026-05-11 16:16:41.599698,2.2897677,0.27727225,1.0542079,-8.119315,1.7082846,4.308738
877,2026-05-11 16:16:41.602568,1.9307225,0.15238695,1.2628176,-8.119315,1.7082846,4.308738
878,2026-05-11 16:16:41.605227,1.9307225,0.15238695,1.2628176,-8.119315,1.7082846,4.308738
879,2026-05-11 16:16:41.607901,1.9307225,0.15238695,1.2628176,-8.119315,1.7082846,4.308738
880,2026-05-11 16:16:41.610664,1.9307225,0.15238695,1.2628176,-8.119315,1.7082846,4.308738
881,2026-05-11 16:16:41.613267,1.9307225,0.15238695,1.2628176,-8.119315,1.7082846,4.308738
882,2026-05-11 16:16:41.616308,1.7339426,0.08707825,1.3324558,-8.295398,1.5942056,3.919617
883,2026-05-11 16:16:41.618989,1.7339426,0.08707825,1.3324558,-8.295398,1.5942056,3.919617
884,2026-05-11 16:16:41.621671,1.7339426,0.08707825,1.3324558,-8.295398,1.5942056,3.919617
885,2026-05-11 16:16:41.624403,1.7339426,0.08707825,1.3324558,-8.295398,1.5942056,3.919617
886,2026-05-11 16:16:41.627190,1.7339426,0.08707825,1.3324558,-7.591986,0.039553523,3.7453675
887,2026-05-11 16:16:41.629940,1.7339426,0.08707825,1.3324558,-7.591986,0.039553523,3.7453675
888,2026-05-11 16:16:41.633030,1.7339426,0.08707825,1.3324558,-7.591986,0.039553523,3.7453675
889,2026-05-11 16:16:41.635764,1.7339426,0.08707825,1.3324558,-7.591986,0.039553523,3.7453675
890,2026-05-11 16:16:41.638380,1.1037838,0.034819108,2.0668888,-7.591986,0.039553523,3.7453675
891,2026-05-11 16:16:41.641239,1.1037838,0.034819108,2.0668888,-7.591986,0.039553523,3.7453675
892,2026-05-11 16:16:41.643912,1.1037838,0.034819108,2.0668888,-7.591986,0.039553523,3.7453675
893,2026-05-11 16:16:41.646551,1.1037838,0.034819108,2.0668888,-7.591986,0.039553523,3.7453675
894,2026-05-11 16:16:41.649524,1.0543298,0.10177423,2.326843,-7.591986,0.039553523,3.7453675
895,2026-05-11 16:16:41.652356,1.0543298,0.10177423,2.326843,-7.591986,0.039553523,3.7453675
896,2026-05-11 16:16:41.655093,1.0543298,0.10177423,2.326843,-7.591986,0.039553523,3.7453675
897,2026-05-11 16:16:41.657683,1.0543298,0.10177423,2.326843,-7.591986,0.039553523,3.7453675
898,2026-05-11 16:16:41.660384,1.0543298,0.10177423,2.326843,-7.591986,0.039553523,3.7453675
899,2026-05-11 16:16:41.662972,1.0543298,0.10177423,2.326843,-7.591986,0.039553523,3.7453675
900,2026-05-11 16:16:41.666531,1.0543298,0.10177423,2.326843,-7.591986,0.039553523,3.7453675
901,2026-05-11 16:16:41.669483,1.0543298,0.10177423,2.326843,-7.591986,0.039553523,3.7453675
902,2026-05-11 16:16:41.672269,1.0543298,0.10177423,2.326843,-6.760598,-0.8756753,3.9019017
903,2026-05-11 16:16:41.674898,1.0543298,0.10177423,2.326843,-6.760598,-0.8756753,3.9019017
904,2026-05-11 16:16:41.677673,1.0543298,0.10177423,2.326843,-6.760598,-0.8756753,3.9019017
905,2026-05-11 16:16:41.680298,1.0543298,0.10177423,2.326843,-6.760598,-0.8756753,3.9019017
906,2026-05-11 16:16:41.683405,1.0543298,0.10177423,2.326843,-6.760598,-0.8756753,3.9019017
907,2026-05-11 16:16:41.686163,1.0543298,0.10177423,2.326843,-6.760598,-0.8756753,3.9019017
908,2026-05-11 16:16:41.688901,1.0543298,0.10177423,2.326843,-6.760598,-0.8756753,3.9019017
909,2026-05-11 16:16:41.691557,1.0543298,0.10177423,2.326843,-6.760598,-0.8756753,3.9019017
910,2026-05-11 16:16:41.694152,1.0543298,0.10177423,2.326843,-6.760598,-0.8756753,3.9019017
911,2026-05-11 16:16:41.696966,1.0543298,0.10177423,2.326843,-5.330563,-1.8304577,4.238794
912,2026-05-11 16:16:41.700032,1.0543298,0.10177423,2.326843,-5.330563,-1.8304577,4.238794
913,2026-05-11 16:16:41.702915,1.1426886,0.29776126,2.7021089,-5.330563,-1.8304577,4.238794
914,2026-05-11 16:16:41.705577,1.1426886,0.29776126,2.7021089,-5.330563,-1.8304577,4.238794
915,2026-05-11 16:16:41.708159,1.1426886,0.29776126,2.7021089,-5.330563,-1.8304577,4.238794
916,2026-05-11 16:16:41.710805,1.1426886,0.29776126,2.7021089,-5.330563,-1.8304577,4.238794
917,2026-05-11 16:16:41.713365,1.1426886,0.29776126,2.7021089,-5.330563,-1.8304577,4.238794
918,2026-05-11 16:16:41.716613,1.1426886,0.29776126,2.7021089,-5.330563,-1.8304577,4.238794
919,2026-05-11 16:16:41.719332,1.1426886,0.29776126,2.7021089,-5.330563,-1.8304577,4.238794
920,2026-05-11 16:16:41.721930,1.1426886,0.29776126,2.7021089,-5.330563,-1.8304577,4.238794
921,2026-05-11 16:16:41.724522,1.1426886,0.29776126,2.7021089,-5.330563,-1.8304577,4.238794
922,2026-05-11 16:16:41.727096,1.1426886,0.29776126,2.7021089,-5.330563,-1.8304577,4.238794
923,2026-05-11 16:16:41.729865,1.1426886,0.29776126,2.7021089,-5.330563,-1.8304577,4.238794
924,2026-05-11 16:16:41.732904,1.1426886,0.29776126,2.7021089,-5.330563,-1.8304577,4.238794
925,2026-05-11 16:16:41.735672,1.1426886,0.29776126,2.7021089,-5.330563,-1.8304577,4.238794
926,2026-05-11 16:16:41.738359,1.1426886,0.29776126,2.7021089,-5.330563,-1.8304577,4.238794
927,2026-05-11 16:16:41.740914,1.1426886,0.29776126,2.7021089,-5.330563,-1.8304577,4.238794
928,2026-05-11 16:16:41.743594,1.1426886,0.29776126,2.7021089,-5.330563,-1.8304577,4.238794
929,2026-05-11 16:16:41.746205,1.1426886,0.29776126,2.7021089,-5.330563,-1.8304577,4.238794
930,2026-05-11 16:16:41.749480,1.1426886,0.29776126,2.7021089,-5.330563,-1.8304577,4.238794
931,2026-05-11 16:16:41.752324,1.6645483,0.7104073,2.5130124,-3.424816,-1.9587394,4.532773
932,2026-05-11 16:16:41.754954,1.6645483,0.7104073,2.5130124,-3.424816,-1.9587394,4.532773
933,2026-05-11 16:16:41.757908,1.6645483,0.7104073,2.5130124,-3.424816,-1.9587394,4.532773
934,2026-05-11 16:16:41.760673,1.6645483,0.7104073,2.5130124,-3.424816,-1.9587394,4.532773
935,2026-05-11 16:16:41.763347,1.6645483,0.7104073,2.5130124,-3.424816,-1.9587394,4.532773
936,2026-05-11 16:16:41.766542,1.6645483,0.7104073,2.5130124,-3.424816,-1.9587394,4.532773
937,2026-05-11 16:16:41.769317,1.6645483,0.7104073,2.5130124,-3.424816,-1.9587394,4.532773
938,2026-05-11 16:16:41.771933,1.6645483,0.7104073,2.5130124,-3.424816,-1.9587394,4.532773
939,2026-05-11 16:16:41.774677,1.6645483,0.7104073,2.5130124,-3.424816,-1.9587394,4.532773
940,2026-05-11 16:16:41.777304,1.6645483,0.7104073,2.5130124,-3.424816,-1.9587394,4.532773
941,2026-05-11 16:16:41.780081,1.6645483,0.7104073,2.5130124,-3.424816,-1.9587394,4.532773
942,2026-05-11 16:16:41.783429,1.6645483,0.7104073,2.5130124,-3.424816,-1.9587394,4.532773
943,2026-05-11 16:16:41.786268,1.847059,0.9626781,2.239826,-2.7206411,-1.3509285,4.3357687
944,2026-05-11 16:16:41.788851,1.847059,0.9626781,2.239826,-2.7206411,-1.3509285,4.3357687
945,2026-05-11 16:16:41.791443,1.847059,0.9626781,2.239826,-2.7206411,-1.3509285,4.3357687
946,2026-05-11 16:16:41.794362,2.0824995,1.3163573,1.618997,-2.7206411,-1.3509285,4.3357687
947,2026-05-11 16:16:41.797139,2.0824995,1.3163573,1.618997,-2.7206411,-1.3509285,4.3357687
948,2026-05-11 16:16:41.800322,2.0824995,1.3163573,1.618997,-2.7206411,-1.3509285,4.3357687
949,2026-05-11 16:16:41.803120,2.0824995,1.3163573,1.618997,-2.7206411,-1.3509285,4.3357687
950,2026-05-11 16:16:41.805837,2.0824995,1.3163573,1.618997,-2.7206411,-1.3509285,4.3357687
951,2026-05-11 16:16:41.808414,2.0824995,1.3163573,1.618997,-2.7206411,-1.3509285,4.3357687
952,2026-05-11 16:16:41.811187,2.0824995,1.3163573,1.618997,-2.7206411,-1.3509285,4.3357687
953,2026-05-11 16:16:41.813787,2.0824995,1.3163573,1.618997,-2.7206411,-1.3509285,4.3357687
954,2026-05-11 16:16:41.816842,2.0824995,1.3163573,1.618997,-2.5604417,-0.37659842,3.9103012
955,2026-05-11 16:16:41.819709,2.0824995,1.3163573,1.618997,-2.5604417,-0.37659842,3.9103012
956,2026-05-11 16:16:41.822305,2.0824995,1.3163573,1.618997,-2.5604417,-0.37659842,3.9103012
957,2026-05-11 16:16:41.824939,2.0824995,1.3163573,1.618997,-2.5604417,-0.37659842,3.9103012
958,2026-05-11 16:16:41.827657,2.0824995,1.3163573,1.618997,-2.5604417,-0.37659842,3.9103012
959,2026-05-11 16:16:41.830254,2.0824995,1.3163573,1.618997,-2.5604417,-0.37659842,3.9103012
960,2026-05-11 16:16:41.833285,2.0824995,1.3163573,1.618997,-2.5604417,-0.37659842,3.9103012
961,2026-05-11 16:16:41.835967,2.0824995,1.3163573,1.618997,-2.5604417,-0.37659842,3.9103012
962,2026-05-11 16:16:41.838861,2.3369658,1.5760067,1.2448897,-2.5604417,-0.37659842,3.9103012
963,2026-05-11 16:16:41.841598,2.3369658,1.5760067,1.2448897,-2.5604417,-0.37659842,3.9103012
964,2026-05-11 16:16:41.844219,2.3369658,1.5760067,1.2448897,-2.5604417,-0.37659842,3.9103012
965,2026-05-11 16:16:41.846962,2.3369658,1.5760067,1.2448897,-2.5604417,-0.37659842,3.9103012
966,2026-05-11 16:16:41.849998,2.3369658,1.5760067,1.2448897,-2.5604417,-0.37659842,3.9103012
967,2026-05-11 16:16:41.852696,2.3369658,1.5760067,1.2448897,-2.5604417,-0.37659842,3.9103012
968,2026-05-11 16:16:41.855305,2.3369658,1.5760067,1.2448897,-2.5604417,-0.37659842,3.9103012
969,2026-05-11 16:16:41.858096,2.3369658,1.5760067,1.2448897,-2.5604417,-0.37659842,3.9103012
970,2026-05-11 16:16:41.860744,2.3369658,1.5760067,1.2448897,-2.5604417,-0.37659842,3.9103012
971,2026-05-11 16:16:41.863573,2.3369658,1.5760067,1.2448897,-2.9176452,0.22617286,3.3368514
972,2026-05-11 16:16:41.866847,2.3369658,1.5760067,1.2448897,-2.9176452,0.22617286,3.3368514
973,2026-05-11 16:16:41.869554,2.3369658,1.5760067,1.2448897,-2.9176452,0.22617286,3.3368514
974,2026-05-11 16:16:41.872144,2.3369658,1.5760067,1.2448897,-2.9176452,0.22617286,3.3368514
975,2026-05-11 16:16:41.874765,2.3369658,1.5760067,1.2448897,-2.9176452,0.22617286,3.3368514
976,2026-05-11 16:16:41.877344,2.3369658,1.5760067,1.2448897,-2.9176452,0.22617286,3.3368514
977,2026-05-11 16:16:41.879905,2.3369658,1.5760067,1.2448897,-2.9176452,0.22617286,3.3368514
978,2026-05-11 16:16:41.882957,2.3369658,1.5760067,1.2448897,-2.9176452,0.22617286,3.3368514
979,2026-05-11 16:16:41.885794,2.3369658,1.5760067,1.2448897,-2.9176452,0.22617286,3.3368514
980,2026-05-11 16:16:41.888408,2.3369658,1.5760067,1.2448897,-2.9176452,0.22617286,3.3368514
981,2026-05-11 16:16:41.891154,2.3369658,1.5760067,1.2448897,-2.9176452,0.22617286,3.3368514
982,2026-05-11 16:16:41.893804,2.3369658,1.5760067,1.2448897,-2.9176452,0.22617286,3.3368514
983,2026-05-11 16:16:41.896405,2.3369658,1.5760067,1.2448897,-2.9176452,0.22617286,3.3368514
984,2026-05-11 16:16:41.899423,2.3369658,1.5760067,1.2448897,-2.9176452,0.22617286,3.3368514
985,2026-05-11 16:16:41.902082,2.3369658,1.5760067,1.2448897,-2.9176452,0.22617286,3.3368514
986,2026-05-11 16:16:41.904696,2.3369658,1.5760067,1.2448897,-2.9176452,0.22617286,3.3368514
987,2026-05-11 16:16:41.907381,2.3369658,1.5760067,1.2448897,-2.9176452,0.22617286,3.3368514
988,2026-05-11 16:16:41.910146,2.3369658,1.5760067,1.2448897,-2.9176452,0.22617286,3.3368514
989,2026-05-11 16:16:41.912807,2.3369658,1.5760067,1.2448897,-2.9176452,0.22617286,3.3368514
990,2026-05-11 16:16:41.915625,2.3369658,1.5760067,1.2448897,-2.9176452,0.22617286,3.3368514
991,2026-05-11 16:16:41.918674,2.3369658,1.5760067,1.2448897,-2.9176452,0.22617286,3.3368514
992,2026-05-11 16:16:41.921400,2.3369658,1.5760067,1.2448897,-2.9176452,0.22617286,3.3368514
993,2026-05-11 16:16:41.924250,2.4155068,1.7629687,0.7807163,-3.5291212,0.30925053,2.7966938
994,2026-05-11 16:16:41.927073,2.4155068,1.7629687,0.7807163,-3.5291212,0.30925053,2.7966938
995,2026-05-11 16:16:41.929699,2.4155068,1.7629687,0.7807163,-3.5291212,0.30925053,2.7966938
996,2026-05-11 16:16:41.932761,2.4155068,1.7629687,0.7807163,-3.5291212,0.30925053,2.7966938
997,2026-05-11 16:16:41.935621,2.4155068,1.7629687,0.7807163,-3.5291212,0.30925053,2.7966938
998,2026-05-11 16:16:41.938192,2.4155068,1.7629687,0.7807163,-3.5291212,0.30925053,2.7966938
999,2026-05-11 16:16:41.940804,2.4155068,1.7629687,0.7807163,-3.5291212,0.30925053,2.7966938
1000,2026-05-11 16:16:41.943565,2.4155068,1.7629687,0.7807163,-3.5291212,0.30925053,2.7966938
1001,2026-05-11 16:16:41.946171,2.4155068,1.7629687,0.7807163,-3.5291212,0.30925053,2.7966938
1002,2026-05-11 16:16:41.949644,2.4155068,1.7629687,0.7807163,-3.5291212,0.30925053,2.7966938
1003,2026-05-11 16:16:41.952691,2.4155068,1.7629687,0.7807163,-3.5291212,0.30925053,2.7966938
1004,2026-05-11 16:16:41.955918,2.4155068,1.7629687,0.7807163,-3.5291212,0.30925053,2.7966938
1005,2026-05-11 16:16:41.958780,2.4155068,1.7629687,0.7807163,-3.5291212,0.30925053,2.7966938
1006,2026-05-11 16:16:41.961878,2.4155068,1.7629687,0.7807163,-3.5291212,0.30925053,2.7966938
1007,2026-05-11 16:16:41.964970,2.2629979,1.861572,0.66449,-3.5291212,0.30925053,2.7966938
1008,2026-05-11 16:16:41.968921,2.2629979,1.861572,0.66449,-3.5291212,0.30925053,2.7966938
1009,2026-05-11 16:16:41.971883,2.2629979,1.861572,0.66449,-3.5291212,0.30925053,2.7966938
1010,2026-05-11 16:16:41.975032,2.2629979,1.861572,0.66449,-3.5291212,0.30925053,2.7966938
1011,2026-05-11 16:16:41.977893,2.2629979,1.861572,0.66449,-3.5291212,0.30925053,2.7966938
1012,2026-05-11 16:16:41.981274,2.2264712,1.9337105,0.8359634,-4.5906525,0.17379116,2.411696
1013,2026-05-11 16:16:41.984823,2.2264712,1.9337105,0.8359634,-4.5906525,0.17379116,2.411696
1014,2026-05-11 16:16:41.988114,2.2264712,1.9337105,0.8359634,-4.5906525,0.17379116,2.411696
1015,2026-05-11 16:16:41.990906,2.2264712,1.9337105,0.8359634,-5.194493,-0.006872234,2.392759
1016,2026-05-11 16:16:41.993822,2.2264712,1.9337105,0.8359634,-5.9831195,-0.17440203,2.4281893
1017,2026-05-11 16:16:41.996493,2.2264712,1.9337105,0.8359634,-5.9831195,-0.17440203,2.4281893
1018,2026-05-11 16:16:41.999677,2.2264712,1.9337105,0.8359634,-5.9831195,-0.17440203,2.4281893
1019,2026-05-11 16:16:42.002406,2.2264712,1.9337105,0.8359634,-5.9831195,-0.17440203,2.4281893
1020,2026-05-11 16:16:42.005152,2.2264712,1.9337105,0.8359634,-5.9831195,-0.17440203,2.4281893
1021,2026-05-11 16:16:42.007962,2.4136775,2.09872,1.3084301,-5.9831195,-0.17440203,2.4281893
1022,2026-05-11 16:16:42.010620,2.4136775,2.09872,1.3084301,-5.9831195,-0.17440203,2.4281893
1023,2026-05-11 16:16:42.013324,2.4136775,2.09872,1.3084301,-5.9831195,-0.17440203,2.4281893
1024,2026-05-11 16:16:42.016460,2.4136775,2.09872,1.3084301,-5.9831195,-0.17440203,2.4281893
1025,2026-05-11 16:16:42.019395,2.4136775,2.09872,1.3084301,-5.9831195,-0.17440203,2.4281893
1026,2026-05-11 16:16:42.022194,2.4136775,2.09872,1.3084301,-5.9831195,-0.17440203,2.4281893
1027,2026-05-11 16:16:42.025191,3.0629225,2.59009,2.1433568,-5.8872137,0.29123,2.2763894
1028,2026-05-11 16:16:42.027891,3.0629225,2.59009,2.1433568,-5.8872137,0.29123,2.2763894
1029,2026-05-11 16:16:42.030630,3.0629225,2.59009,2.1433568,-5.8872137,0.29123,2.2763894
1030,2026-05-11 16:16:42.033653,3.0629225,2.59009,2.1433568,-5.8872137,0.29123,2.2763894
1031,2026-05-11 16:16:42.036643,3.0629225,2.59009,2.1433568,-5.8872137,0.29123,2.2763894
1032,2026-05-11 16:16:42.039366,3.0629225,2.59009,2.1433568,-5.8872137,0.29123,2.2763894
1033,2026-05-11 16:16:42.042156,3.0629225,2.59009,2.1433568,-5.8872137,0.29123,2.2763894
1034,2026-05-11 16:16:42.044905,3.315742,2.871509,2.7157683,-5.8872137,0.29123,2.2763894
1035,2026-05-11 16:16:42.047614,3.315742,2.871509,2.7157683,-5.8872137,0.29123,2.2763894
1036,2026-05-11 16:16:42.050878,3.315742,2.871509,2.7157683,-5.8872137,0.29123,2.2763894
1037,2026-05-11 16:16:42.053671,3.315742,2.871509,2.7157683,-5.8872137,0.29123,2.2763894
1038,2026-05-11 16:16:42.056306,3.315742,2.871509,2.7157683,-5.8872137,0.29123,2.2763894
1039,2026-05-11 16:16:42.059085,3.315742,2.871509,2.7157683,-5.8872137,0.29123,2.2763894
1040,2026-05-11 16:16:42.061690,3.315742,2.871509,2.7157683,-5.8872137,0.29123,2.2763894
1041,2026-05-11 16:16:42.064307,3.315742,2.871509,2.7157683,-4.965571,0.09193522,1.8461875
1042,2026-05-11 16:16:42.067635,3.315742,2.871509,2.7157683,-4.965571,0.09193522,1.8461875
1043,2026-05-11 16:16:42.070404,3.315742,2.871509,2.7157683,-4.965571,0.09193522,1.8461875
1044,2026-05-11 16:16:42.073255,3.3823314,3.228481,3.600149,-3.6592355,-0.28924468,1.4355333
1045,2026-05-11 16:16:42.075950,3.3823314,3.228481,3.600149,-3.6592355,-0.28924468,1.4355333
1046,2026-05-11 16:16:42.078519,3.3823314,3.228481,3.600149,-3.6592355,-0.28924468,1.4355333
1047,2026-05-11 16:16:42.081292,3.3823314,3.228481,3.600149,-1.372767,-0.6348417,0.8874345
1048,2026-05-11 16:16:42.084417,3.3823314,3.228481,3.600149,-1.372767,-0.6348417,0.8874345
1049,2026-05-11 16:16:42.087142,3.3823314,3.228481,3.600149,-1.372767,-0.6348417,0.8874345
1050,2026-05-11 16:16:42.089745,3.3823314,3.228481,3.600149,-1.372767,-0.6348417,0.8874345
1051,2026-05-11 16:16:42.092418,3.3823314,3.228481,3.600149,-1.372767,-0.6348417,0.8874345
1052,2026-05-11 16:16:42.094993,3.3823314,3.228481,3.600149,-1.372767,-0.6348417,0.8874345
1053,2026-05-11 16:16:42.097866,3.3823314,3.228481,3.600149,-1.372767,-0.6348417,0.8874345
1054,2026-05-11 16:16:42.101480,3.3823314,3.228481,3.600149,-1.372767,-0.6348417,0.8874345
1055,2026-05-11 16:16:42.104379,3.3823314,3.228481,3.600149,1.1433871,-0.710589,0.3575089
1056,2026-05-11 16:16:42.107103,3.3823314,3.228481,3.600149,1.1433871,-0.710589,0.3575089
1057,2026-05-11 16:16:42.109777,3.3823314,3.228481,3.600149,1.1433871,-0.710589,0.3575089
1058,2026-05-11 16:16:42.112394,3.3823314,3.228481,3.600149,1.1433871,-0.710589,0.3575089
1059,2026-05-11 16:16:42.115402,3.3823314,3.228481,3.600149,1.1433871,-0.710589,0.3575089
1060,2026-05-11 16:16:42.118785,3.3823314,3.228481,3.600149,1.1433871,-0.710589,0.3575089
1061,2026-05-11 16:16:42.121589,3.3823314,3.228481,3.600149,1.1433871,-0.710589,0.3575089
1062,2026-05-11 16:16:42.124375,3.3823314,3.228481,3.600149,1.1433871,-0.710589,0.3575089
1063,2026-05-11 16:16:42.127131,3.292936,3.3425124,3.4000154,1.1433871,-0.710589,0.3575089
1064,2026-05-11 16:16:42.129841,3.292936,3.3425124,3.4000154,1.1433871,-0.710589,0.3575089
1065,2026-05-11 16:16:42.132950,3.292936,3.3425124,3.4000154,1.1433871,-0.710589,0.3575089
1066,2026-05-11 16:16:42.135733,3.292936,3.3425124,3.4000154,1.1433871,-0.710589,0.3575089
1067,2026-05-11 16:16:42.138335,3.292936,3.3425124,3.4000154,1.1433871,-0.710589,0.3575089
1068,2026-05-11 16:16:42.141076,3.292936,3.3425124,3.4000154,1.1433871,-0.710589,0.3575089
1069,2026-05-11 16:16:42.143659,3.292936,3.3425124,3.4000154,1.1433871,-0.710589,0.3575089
1070,2026-05-11 16:16:42.146357,3.1360977,3.337024,2.856996,1.1433871,-0.710589,0.3575089
1071,2026-05-11 16:16:42.149518,3.1360977,3.337024,2.856996,1.1433871,-0.710589,0.3575089
1072,2026-05-11 16:16:42.152366,3.1360977,3.337024,2.856996,1.1433871,-0.710589,0.3575089
1073,2026-05-11 16:16:42.155087,3.1360977,3.337024,2.856996,1.1433871,-0.710589,0.3575089
1074,2026-05-11 16:16:42.157753,3.1360977,3.337024,2.856996,1.1433871,-0.710589,0.3575089
1075,2026-05-11 16:16:42.160362,3.1360977,3.337024,2.856996,1.1433871,-0.710589,0.3575089
1076,2026-05-11 16:16:42.163149,3.1360977,3.337024,2.856996,1.1433871,-0.710589,0.3575089
1077,2026-05-11 16:16:42.166090,3.1360977,3.337024,2.856996,1.1433871,-0.710589,0.3575089
1078,2026-05-11 16:16:42.168869,3.1360977,3.337024,2.856996,3.1789427,-0.754724,-0.0842994
1079,2026-05-11 16:16:42.171614,3.1360977,3.337024,2.856996,3.1789427,-0.754724,-0.0842994
1080,2026-05-11 16:16:42.174338,3.1360977,3.337024,2.856996,3.1789427,-0.754724,-0.0842994
1081,2026-05-11 16:16:42.177084,3.1360977,3.337024,2.856996,3.1789427,-0.754724,-0.0842994
1082,2026-05-11 16:16:42.179781,3.1360977,3.337024,2.856996,3.1789427,-0.754724,-0.0842994
1083,2026-05-11 16:16:42.182931,3.1360977,3.337024,2.856996,3.1789427,-0.754724,-0.0842994
1084,2026-05-11 16:16:42.185739,3.1360977,3.337024,2.856996,3.1789427,-0.754724,-0.0842994
1085,2026-05-11 16:16:42.188502,3.1360977,3.337024,2.856996,3.1789427,-0.754724,-0.0842994
1086,2026-05-11 16:16:42.191124,3.1360977,3.337024,2.856996,3.1789427,-0.754724,-0.0842994
1087,2026-05-11 16:16:42.193863,3.1360977,3.337024,2.856996,3.1789427,-0.754724,-0.0842994
1088,2026-05-11 16:16:42.196507,3.1360977,3.337024,2.856996,4.6196685,-0.8013025,-0.41263947
1089,2026-05-11 16:16:42.199563,3.0537148,3.2643366,2.4027011,4.6196685,-0.8013025,-0.41263947
1090,2026-05-11 16:16:42.202389,3.0537148,3.2643366,2.4027011,4.6196685,-0.8013025,-0.41263947
1091,2026-05-11 16:16:42.205110,3.0537148,3.2643366,2.4027011,4.6196685,-0.8013025,-0.41263947
1092,2026-05-11 16:16:42.207714,3.0537148,3.2643366,2.4027011,4.6196685,-0.8013025,-0.41263947
1093,2026-05-11 16:16:42.210322,3.0537148,3.2643366,2.4027011,4.6196685,-0.8013025,-0.41263947
1094,2026-05-11 16:16:42.212937,3.0537148,3.2643366,2.4027011,4.6196685,-0.8013025,-0.41263947
1095,2026-05-11 16:16:42.216072,3.0537148,3.2643366,2.4027011,4.6196685,-0.8013025,-0.41263947
1096,2026-05-11 16:16:42.219081,3.0787773,3.204821,1.9113921,4.6196685,-0.8013025,-0.41263947
1097,2026-05-11 16:16:42.221734,3.0787773,3.204821,1.9113921,4.6196685,-0.8013025,-0.41263947
1098,2026-05-11 16:16:42.224346,3.0787773,3.204821,1.9113921,4.6196685,-0.8013025,-0.41263947
1099,2026-05-11 16:16:42.227181,3.0787773,3.204821,1.9113921,4.6196685,-0.8013025,-0.41263947
1100,2026-05-11 16:16:42.229942,3.0830457,3.1655505,1.1221386,5.615073,-0.6921103,-1.2893838
1101,2026-05-11 16:16:42.233008,3.0830457,3.1655505,1.1221386,5.615073,-0.6921103,-1.2893838
1102,2026-05-11 16:16:42.235762,3.0830457,3.1655505,1.1221386,5.615073,-0.6921103,-1.2893838
1103,2026-05-11 16:16:42.238532,3.0830457,3.1655505,1.1221386,5.615073,-0.6921103,-1.2893838
1104,2026-05-11 16:16:42.241447,2.874131,3.1596355,0.509298,5.615073,-0.6921103,-1.2893838
1105,2026-05-11 16:16:42.244340,2.5791748,3.126219,0.16671704,3.9374847,-0.23854288,-2.7004826
1106,2026-05-11 16:16:42.247020,2.5791748,3.126219,0.16671704,3.9374847,-0.23854288,-2.7004826
1107,2026-05-11 16:16:42.250249,2.5791748,3.126219,0.16671704,3.9374847,-0.23854288,-2.7004826
1108,2026-05-11 16:16:42.253258,2.5791748,3.126219,0.16671704,3.9374847,-0.23854288,-2.7004826
1109,2026-05-11 16:16:42.256103,2.5791748,3.126219,0.16671704,3.9374847,-0.23854288,-2.7004826
1110,2026-05-11 16:16:42.258745,2.5791748,3.126219,0.16671704,3.9374847,-0.23854288,-2.7004826
1111,2026-05-11 16:16:42.261449,2.5791748,3.126219,0.16671704,3.9374847,-0.23854288,-2.7004826
1112,2026-05-11 16:16:42.264302,2.5791748,3.126219,0.16671704,3.9374847,-0.23854288,-2.7004826
1113,2026-05-11 16:16:42.292856,1.3299557,-0.91212636,1.7356501,5.8523946,-0.56245416,-7.6660533
1114,2026-05-11 16:16:42.296432,1.0419511,-1.0077418,1.5789336,6.376364,-0.6411031,-7.3613844
1115,2026-05-11 16:16:42.305061,1.0419511,-1.0077418,1.5789336,6.376364,-0.6411031,-7.3613844
1116,2026-05-11 16:16:42.307975,1.0419511,-1.0077418,1.5789336,6.376364,-0.6411031,-7.3613844
1117,2026-05-11 16:16:42.310648,1.0419511,-1.0077418,1.5789336,6.376364,-0.6411031,-7.3613844
1118,2026-05-11 16:16:42.313277,1.0419511,-1.0077418,1.5789336,6.376364,-0.6411031,-7.3613844
1119,2026-05-11 16:16:42.316329,1.0419511,-1.0077418,1.5789336,6.376364,-0.6411031,-7.3613844
1120,2026-05-11 16:16:42.319291,1.0419511,-1.0077418,1.5789336,6.376364,-0.6411031,-7.3613844
1121,2026-05-11 16:16:42.321985,1.0419511,-1.0077418,1.5789336,6.376364,-0.6411031,-7.3613844
1122,2026-05-11 16:16:42.324861,1.0419511,-1.0077418,1.5789336,6.376364,-0.6411031,-7.3613844
1123,2026-05-11 16:16:42.327763,1.0419511,-1.0077418,1.5789336,6.867805,-0.84894997,-6.8832297
1124,2026-05-11 16:16:42.330469,1.0419511,-1.0077418,1.5789336,6.867805,-0.84894997,-6.8832297
1125,2026-05-11 16:16:42.333444,1.0419511,-1.0077418,1.5789336,6.867805,-0.84894997,-6.8832297
1126,2026-05-11 16:16:42.336410,0.714066,-1.0114615,1.355079,6.867805,-0.84894997,-6.8832297
1127,2026-05-11 16:16:42.339181,0.714066,-1.0114615,1.355079,6.867805,-0.84894997,-6.8832297
1128,2026-05-11 16:16:42.341898,0.714066,-1.0114615,1.355079,6.867805,-0.84894997,-6.8832297
1129,2026-05-11 16:16:42.344620,0.714066,-1.0114615,1.355079,6.867805,-0.84894997,-6.8832297
1130,2026-05-11 16:16:42.347360,0.714066,-1.0114615,1.355079,6.867805,-0.84894997,-6.8832297
1131,2026-05-11 16:16:42.350380,0.714066,-1.0114615,1.355079,6.867805,-0.84894997,-6.8832297
1132,2026-05-11 16:16:42.353173,0.714066,-1.0114615,1.355079,6.867805,-0.84894997,-6.8832297
1133,2026-05-11 16:16:42.355931,0.714066,-1.0114615,1.355079,6.867805,-0.84894997,-6.8832297
1134,2026-05-11 16:16:42.358596,0.714066,-1.0114615,1.355079,6.867805,-0.84894997,-6.8832297
1135,2026-05-11 16:16:42.361176,0.714066,-1.0114615,1.355079,6.867805,-0.84894997,-6.8832297
1136,2026-05-11 16:16:42.363921,0.714066,-1.0114615,1.355079,6.867805,-0.84894997,-6.8832297
1137,2026-05-11 16:16:42.366910,0.714066,-1.0114615,1.355079,6.867805,-0.84894997,-6.8832297
1138,2026-05-11 16:16:42.369783,0.714066,-1.0114615,1.355079,6.867805,-0.84894997,-6.8832297
1139,2026-05-11 16:16:42.372427,0.714066,-1.0114615,1.355079,6.867805,-0.84894997,-6.8832297
1140,2026-05-11 16:16:42.375076,0.714066,-1.0114615,1.355079,6.867805,-0.84894997,-6.8832297
1141,2026-05-11 16:16:42.377792,0.714066,-1.0114615,1.355079,7.1103187,-1.2134838,-6.4464607
1142,2026-05-11 16:16:42.380401,0.714066,-1.0114615,1.355079,7.1103187,-1.2134838,-6.4464607
1143,2026-05-11 16:16:42.383493,0.714066,-1.0114615,1.355079,7.1103187,-1.2134838,-6.4464607
1144,2026-05-11 16:16:42.386205,0.714066,-1.0114615,1.355079,7.1103187,-1.2134838,-6.4464607
1145,2026-05-11 16:16:42.388939,0.714066,-1.0114615,1.355079,7.1103187,-1.2134838,-6.4464607
1146,2026-05-11 16:16:42.391695,0.714066,-1.0114615,1.355079,7.1103187,-1.2134838,-6.4464607
1147,2026-05-11 16:16:42.394284,0.714066,-1.0114615,1.355079,7.1103187,-1.2134838,-6.4464607
1148,2026-05-11 16:16:42.397000,0.714066,-1.0114615,1.355079,7.1103187,-1.2134838,-6.4464607
1149,2026-05-11 16:16:42.400113,0.714066,-1.0114615,1.355079,7.1103187,-1.2134838,-6.4464607
1150,2026-05-11 16:16:42.402874,0.714066,-1.0114615,1.355079,7.1103187,-1.2134838,-6.4464607
1151,2026-05-11 16:16:42.405506,0.714066,-1.0114615,1.355079,7.1103187,-1.2134838,-6.4464607
1152,2026-05-11 16:16:42.408346,0.4733203,-1.006705,1.0148153,7.1103187,-1.2134838,-6.4464607
1153,2026-05-11 16:16:42.410985,0.4733203,-1.006705,1.0148153,7.1103187,-1.2134838,-6.4464607
1154,2026-05-11 16:16:42.413682,0.30465192,-1.0190228,0.74047005,7.1103187,-1.2134838,-6.4464607
1155,2026-05-11 16:16:42.416610,0.30465192,-1.0190228,0.74047005,7.1103187,-1.2134838,-6.4464607
1156,2026-05-11 16:16:42.419455,0.30465192,-1.0190228,0.74047005,7.1103187,-1.2134838,-6.4464607
1157,2026-05-11 16:16:42.422047,0.30465192,-1.0190228,0.74047005,7.1103187,-1.2134838,-6.4464607
1158,2026-05-11 16:16:42.424620,0.30465192,-1.0190228,0.74047005,7.1103187,-1.2134838,-6.4464607
1159,2026-05-11 16:16:42.427380,0.30465192,-1.0190228,0.74047005,7.1103187,-1.2134838,-6.4464607
1160,2026-05-11 16:16:42.430053,0.30465192,-1.0190228,0.74047005,7.1103187,-1.2134838,-6.4464607
1161,2026-05-11 16:16:42.433239,0.30465192,-1.0190228,0.74047005,7.1103187,-1.2134838,-6.4464607
1162,2026-05-11 16:16:42.436225,0.30465192,-1.0190228,0.74047005,7.1103187,-1.2134838,-6.4464607
1163,2026-05-11 16:16:42.438954,0.30465192,-1.0190228,0.74047005,7.1103187,-1.2134838,-6.4464607
1164,2026-05-11 16:16:42.441548,0.30465192,-1.0190228,0.74047005,7.1103187,-1.2134838,-6.4464607
1165,2026-05-11 16:16:42.444467,0.30465192,-1.0190228,0.74047005,7.1384187,-1.8529071,-5.871484
1166,2026-05-11 16:16:42.447184,0.30465192,-1.0190228,0.74047005,7.1384187,-1.8529071,-5.871484
1167,2026-05-11 16:16:42.450168,0.30465192,-1.0190228,0.74047005,7.1384187,-1.8529071,-5.871484
1168,2026-05-11 16:16:42.453010,0.30465192,-1.0190228,0.74047005,7.1384187,-1.8529071,-5.871484
1169,2026-05-11 16:16:42.455738,0.30465192,-1.0190228,0.74047005,7.1384187,-1.8529071,-5.871484
1170,2026-05-11 16:16:42.458317,0.30465192,-1.0190228,0.74047005,7.1384187,-1.8529071,-5.871484
1171,2026-05-11 16:16:42.461047,0.30465192,-1.0190228,0.74047005,7.1384187,-1.8529071,-5.871484
1172,2026-05-11 16:16:42.463662,0.30465192,-1.0190228,0.74047005,7.1384187,-1.8529071,-5.871484
1173,2026-05-11 16:16:42.466723,0.30465192,-1.0190228,0.74047005,7.1384187,-1.8529071,-5.871484
1174,2026-05-11 16:16:42.469451,0.30465192,-1.0190228,0.74047005,7.1384187,-1.8529071,-5.871484
1175,2026-05-11 16:16:42.472041,0.30465192,-1.0190228,0.74047005,7.1384187,-1.8529071,-5.871484
1176,2026-05-11 16:16:42.474778,0.30465192,-1.0190228,0.74047005,7.1384187,-1.8529071,-5.871484
1177,2026-05-11 16:16:42.477414,0.30465192,-1.0190228,0.74047005,7.1384187,-1.8529071,-5.871484
1178,2026-05-11 16:16:42.480005,0.30465192,-1.0190228,0.74047005,7.1384187,-1.8529071,-5.871484
1179,2026-05-11 16:16:42.483265,0.30465192,-1.0190228,0.74047005,7.1384187,-1.8529071,-5.871484
1180,2026-05-11 16:16:42.486189,0.30465192,-1.0190228,0.74047005,7.1384187,-1.8529071,-5.871484
1181,2026-05-11 16:16:42.488859,0.30465192,-1.0190228,0.74047005,7.1384187,-1.8529071,-5.871484
1182,2026-05-11 16:16:42.491447,0.30465192,-1.0190228,0.74047005,7.1384187,-1.8529071,-5.871484
1183,2026-05-11 16:16:42.494098,0.30465192,-1.0190228,0.74047005,7.1384187,-1.8529071,-5.871484
1184,2026-05-11 16:16:42.496660,0.30465192,-1.0190228,0.74047005,7.1384187,-1.8529071,-5.871484
1185,2026-05-11 16:16:42.499877,0.30465192,-1.0190228,0.74047005,7.1384187,-1.8529071,-5.871484
1186,2026-05-11 16:16:42.502662,0.30465192,-1.0190228,0.74047005,7.1384187,-1.8529071,-5.871484
1187,2026-05-11 16:16:42.505487,0.30465192,-1.0190228,0.74047005,7.1384187,-1.8529071,-5.871484
1188,2026-05-11 16:16:42.508223,0.079029,-1.1120161,0.40923122,6.8734555,-2.2418754,-5.275127
1189,2026-05-11 16:16:42.511109,-0.45167267,-1.6094842,-0.4471602,5.9067616,-2.0395262,-4.280638
1190,2026-05-11 16:16:42.513834,-0.45167267,-1.6094842,-0.4471602,5.9067616,-2.0395262,-4.280638
1191,2026-05-11 16:16:42.516939,-0.45167267,-1.6094842,-0.4471602,5.9067616,-2.0395262,-4.280638
1192,2026-05-11 16:16:42.519697,-0.45167267,-1.6094842,-0.4471602,5.9067616,-2.0395262,-4.280638
1193,2026-05-11 16:16:42.522498,-0.45167267,-1.6094842,-0.4471602,5.9067616,-2.0395262,-4.280638
1194,2026-05-11 16:16:42.525326,-0.45167267,-1.6094842,-0.4471602,5.9067616,-2.0395262,-4.280638
1195,2026-05-11 16:16:42.528080,-0.45167267,-1.6094842,-0.4471602,5.0588803,-2.1668918,-3.7452147
1196,2026-05-11 16:16:42.530912,-0.45167267,-1.6094842,-0.4471602,5.0588803,-2.1668918,-3.7452147
1197,2026-05-11 16:16:42.534166,-0.45167267,-1.6094842,-0.4471602,3.7490327,-2.2956316,-3.1917708
1198,2026-05-11 16:16:42.537003,-0.45167267,-1.6094842,-0.4471602,3.7490327,-2.2956316,-3.1917708
1199,2026-05-11 16:16:42.539688,-0.45167267,-1.6094842,-0.4471602,3.7490327,-2.2956316,-3.1917708
1200,2026-05-11 16:16:42.542289,-0.45167267,-1.6094842,-0.4471602,3.7490327,-2.2956316,-3.1917708
1201,2026-05-11 16:16:42.545075,-0.45167267,-1.6094842,-0.4471602,3.7490327,-2.2956316,-3.1917708
1202,2026-05-11 16:16:42.547679,-0.45167267,-1.6094842,-0.4471602,3.7490327,-2.2956316,-3.1917708
1203,2026-05-11 16:16:42.550980,-0.6877841,-1.6629019,-0.6746735,3.7490327,-2.2956316,-3.1917708
1204,2026-05-11 16:16:42.553769,-0.6877841,-1.6629019,-0.6746735,3.7490327,-2.2956316,-3.1917708
1205,2026-05-11 16:16:42.556356,-0.6877841,-1.6629019,-0.6746735,3.7490327,-2.2956316,-3.1917708
1206,2026-05-11 16:16:42.559044,-0.6877841,-1.6629019,-0.6746735,3.7490327,-2.2956316,-3.1917708
1207,2026-05-11 16:16:42.561865,-0.6877841,-1.6629019,-0.6746735,3.7490327,-2.2956316,-3.1917708
1208,2026-05-11 16:16:42.564690,-0.6877841,-1.6629019,-0.6746735,3.7490327,-2.2956316,-3.1917708
1209,2026-05-11 16:16:42.568216,-0.6877841,-1.6629019,-0.6746735,3.7490327,-2.2956316,-3.1917708
1210,2026-05-11 16:16:42.571248,-0.6877841,-1.6629019,-0.6746735,3.7490327,-2.2956316,-3.1917708
1211,2026-05-11 16:16:42.574016,-0.6877841,-1.6629019,-0.6746735,3.7490327,-2.2956316,-3.1917708
1212,2026-05-11 16:16:42.576793,-0.6877841,-1.6629019,-0.6746735,3.7490327,-2.2956316,-3.1917708
1213,2026-05-11 16:16:42.579536,-0.6877841,-1.6629019,-0.6746735,3.7490327,-2.2956316,-3.1917708
1214,2026-05-11 16:16:42.583034,-0.6877841,-1.6629019,-0.6746735,3.7490327,-2.2956316,-3.1917708
1215,2026-05-11 16:16:42.585959,-0.74949497,-1.6934525,-0.7621176,3.7490327,-2.2956316,-3.1917708
1216,2026-05-11 16:16:42.588793,-0.74949497,-1.6934525,-0.7621176,3.7490327,-2.2956316,-3.1917708
1217,2026-05-11 16:16:42.591510,-0.74949497,-1.6934525,-0.7621176,3.7490327,-2.2956316,-3.1917708
1218,2026-05-11 16:16:42.594376,-0.74949497,-1.6934525,-0.7621176,2.365423,-2.0201313,-2.7207937
1219,2026-05-11 16:16:42.597185,-0.74949497,-1.6934525,-0.7621176,0.7903069,-1.4431691,-2.2747095
1220,2026-05-11 16:16:42.600618,-0.74949497,-1.6934525,-0.7621176,0.7903069,-1.4431691,-2.2747095
1221,2026-05-11 16:16:42.603482,-0.74949497,-1.6934525,-0.7621176,0.7903069,-1.4431691,-2.2747095
1222,2026-05-11 16:16:42.606297,-0.74949497,-1.6934525,-0.7621176,0.7903069,-1.4431691,-2.2747095
1223,2026-05-11 16:16:42.609027,-0.74949497,-1.6934525,-0.7621176,0.7903069,-1.4431691,-2.2747095
1224,2026-05-11 16:16:42.611622,-0.74949497,-1.6934525,-0.7621176,0.7903069,-1.4431691,-2.2747095
1225,2026-05-11 16:16:42.614656,-0.74919003,-1.8150449,-0.65729445,0.7903069,-1.4431691,-2.2747095
1226,2026-05-11 16:16:42.617867,-0.74919003,-1.8150449,-0.65729445,0.7903069,-1.4431691,-2.2747095
1227,2026-05-11 16:16:42.620749,-0.74919003,-1.8150449,-0.65729445,0.7903069,-1.4431691,-2.2747095
1228,2026-05-11 16:16:42.623566,-0.74919003,-1.8150449,-0.65729445,0.7903069,-1.4431691,-2.2747095
1229,2026-05-11 16:16:42.626364,-0.74919003,-1.8150449,-0.65729445,0.7903069,-1.4431691,-2.2747095
1230,2026-05-11 16:16:42.629106,-0.74919003,-1.8150449,-0.65729445,0.7903069,-1.4431691,-2.2747095
1231,2026-05-11 16:16:42.631792,-0.74919003,-1.8150449,-0.65729445,0.7903069,-1.4431691,-2.2747095
1232,2026-05-11 16:16:42.635211,-0.74919003,-1.8150449,-0.65729445,0.7903069,-1.4431691,-2.2747095
1233,2026-05-11 16:16:42.637949,-0.74919003,-1.8150449,-0.65729445,0.7903069,-1.4431691,-2.2747095
1234,2026-05-11 16:16:42.640659,-0.74919003,-1.8150449,-0.65729445,0.7903069,-1.4431691,-2.2747095
1235,2026-05-11 16:16:42.643543,-0.74919003,-1.8150449,-0.65729445,0.7903069,-1.4431691,-2.2747095
1236,2026-05-11 16:16:42.646387,-0.74919003,-1.8150449,-0.65729445,0.7903069,-1.4431691,-2.2747095
1237,2026-05-11 16:16:42.649699,-0.74919003,-1.8150449,-0.65729445,0.7903069,-1.4431691,-2.2747095
1238,2026-05-11 16:16:42.652620,-0.74919003,-1.8150449,-0.65729445,0.7903069,-1.4431691,-2.2747095
1239,2026-05-11 16:16:42.655274,-0.74919003,-1.8150449,-0.65729445,0.7903069,-1.4431691,-2.2747095
1240,2026-05-11 16:16:42.658231,-0.7646178,-1.9851159,-0.27465016,-1.3150401,-0.05879578,-1.5897768
1241,2026-05-11 16:16:42.661058,-0.7646178,-1.9851159,-0.27465016,-1.3150401,-0.05879578,-1.5897768
1242,2026-05-11 16:16:42.663742,-0.7646178,-1.9851159,-0.27465016,-1.3150401,-0.05879578,-1.5897768
1243,2026-05-11 16:16:42.667119,-0.7857166,-2.110733,0.0048783333,-1.3150401,-0.05879578,-1.5897768
1244,2026-05-11 16:16:42.670009,-0.7857166,-2.110733,0.0048783333,-1.3150401,-0.05879578,-1.5897768
1245,2026-05-11 16:16:42.672909,-0.7857166,-2.110733,0.0048783333,-1.3150401,-0.05879578,-1.5897768
1246,2026-05-11 16:16:42.675774,-0.7857166,-2.110733,0.0048783333,-1.3150401,-0.05879578,-1.5897768
1247,2026-05-11 16:16:42.678452,-0.7857166,-2.110733,0.0048783333,-1.3150401,-0.05879578,-1.5897768
1248,2026-05-11 16:16:42.681255,-0.7857166,-2.110733,0.0048783333,-1.3150401,-0.05879578,-1.5897768
1249,2026-05-11 16:16:42.684716,-0.7857166,-2.110733,0.0048783333,-1.3150401,-0.05879578,-1.5897768
1250,2026-05-11 16:16:42.687757,-0.7857166,-2.110733,0.0048783333,-2.4480424,1.1924089,-1.0291553
1251,2026-05-11 16:16:42.690515,-0.7857166,-2.110733,0.0048783333,-2.4480424,1.1924089,-1.0291553
1252,2026-05-11 16:16:42.693269,-0.7857166,-2.110733,0.0048783333,-2.4480424,1.1924089,-1.0291553
1253,2026-05-11 16:16:42.695881,-0.7857166,-2.110733,0.0048783333,-2.4480424,1.1924089,-1.0291553
1254,2026-05-11 16:16:42.699199,-0.7857166,-2.110733,0.0048783333,-2.4480424,1.1924089,-1.0291553
1255,2026-05-11 16:16:42.702084,-0.7857166,-2.110733,0.0048783333,-2.4480424,1.1924089,-1.0291553
1256,2026-05-11 16:16:42.704694,-0.7857166,-2.110733,0.0048783333,-2.4480424,1.1924089,-1.0291553
1257,2026-05-11 16:16:42.707660,-0.7857166,-2.110733,0.0048783333,-2.4480424,1.1924089,-1.0291553
1258,2026-05-11 16:16:42.710425,-0.7857166,-2.110733,0.0048783333,-2.4480424,1.1924089,-1.0291553
1259,2026-05-11 16:16:42.713376,-0.7857166,-2.110733,0.0048783333,-2.4480424,1.1924089,-1.0291553
1260,2026-05-11 16:16:42.717019,-0.83998805,-2.2032993,0.2950782,-2.866638,1.9388863,-0.6093381
1261,2026-05-11 16:16:42.719848,-0.83998805,-2.2032993,0.2950782,-2.866638,1.9388863,-0.6093381
1262,2026-05-11 16:16:42.722623,-0.83998805,-2.2032993,0.2950782,-2.866638,1.9388863,-0.6093381
1263,2026-05-11 16:16:42.725466,-0.83998805,-2.2032993,0.2950782,-2.866638,1.9388863,-0.6093381
1264,2026-05-11 16:16:42.728372,-0.97603256,-2.2495215,0.4730764,-2.866638,1.9388863,-0.6093381
1265,2026-05-11 16:16:42.731086,-0.97603256,-2.2495215,0.4730764,-2.895654,2.6398542,-0.03940081
1266,2026-05-11 16:16:42.734538,-0.97603256,-2.2495215,0.4730764,-2.895654,2.6398542,-0.03940081
1267,2026-05-11 16:16:42.737281,-0.97603256,-2.2495215,0.4730764,-2.895654,2.6398542,-0.03940081
1268,2026-05-11 16:16:42.740163,-0.97603256,-2.2495215,0.4730764,-2.895654,2.6398542,-0.03940081
1269,2026-05-11 16:16:42.743003,-0.97603256,-2.2495215,0.4730764,-2.895654,2.6398542,-0.03940081
1270,2026-05-11 16:16:42.745672,-0.97603256,-2.2495215,0.4730764,-2.895654,2.6398542,-0.03940081
1271,2026-05-11 16:16:42.749021,-0.97603256,-2.2495215,0.4730764,-2.895654,2.6398542,-0.03940081
1272,2026-05-11 16:16:42.751920,-0.97603256,-2.2495215,0.4730764,-2.895654,2.6398542,-0.03940081
1273,2026-05-11 16:16:42.754822,-0.97603256,-2.2495215,0.4730764,-2.895654,2.6398542,-0.03940081
1274,2026-05-11 16:16:42.757631,-0.97603256,-2.2495215,0.4730764,-2.895654,2.6398542,-0.03940081
1275,2026-05-11 16:16:42.760383,-0.97603256,-2.2495215,0.4730764,-2.895654,2.6398542,-0.03940081
1276,2026-05-11 16:16:42.763143,-0.97603256,-2.2495215,0.4730764,-2.895654,2.6398542,-0.03940081
1277,2026-05-11 16:16:42.766645,-0.97603256,-2.2495215,0.4730764,-2.895654,2.6398542,-0.03940081
1278,2026-05-11 16:16:42.769529,-0.97603256,-2.2495215,0.4730764,-2.895654,2.6398542,-0.03940081
1279,2026-05-11 16:16:42.772198,-0.97603256,-2.2495215,0.4730764,-2.895654,2.6398542,-0.03940081
1280,2026-05-11 16:16:42.774993,-0.97603256,-2.2495215,0.4730764,-2.895654,2.6398542,-0.03940081
1281,2026-05-11 16:16:42.777851,-1.0116444,-2.24257,0.66918534,-2.5477662,2.9921706,0.50320023
1282,2026-05-11 16:16:42.780753,-0.8048031,-2.229947,0.48844314,-0.7368562,3.4498615,1.5260941
1283,2026-05-11 16:16:42.783861,-0.7746184,-2.057925,0.048905294,0.06414085,3.1630602,2.0564778
1284,2026-05-11 16:16:42.786796,-0.7746184,-2.057925,0.048905294,0.06414085,3.1630602,2.0564778
1285,2026-05-11 16:16:42.789580,-0.7746184,-2.057925,0.048905294,0.06414085,3.1630602,2.0564778
1286,2026-05-11 16:16:42.792201,-0.7746184,-2.057925,0.048905294,0.06414085,3.1630602,2.0564778
1287,2026-05-11 16:16:42.794979,-0.7746184,-2.057925,0.048905294,0.06414085,3.1630602,2.0564778
1288,2026-05-11 16:16:42.797705,-0.7746184,-2.057925,0.048905294,0.06414085,3.1630602,2.0564778
