id,timestamp,acc_x,acc_y,acc_z,gyro_x,gyro_y,gyro_z
1,2026-05-11 16:15:16.606605,-0.746446,0.18659624,1.7449188,1.9633209,1.1238394,1.3692545
2,2026-05-11 16:15:16.616972,-0.746446,0.18659624,1.7449188,1.9633209,1.1238394,1.3692545
3,2026-05-11 16:15:16.620173,-0.746446,0.18659624,1.7449188,1.9633209,1.1238394,1.3692545
4,2026-05-11 16:15:16.622887,-0.746446,0.18659624,1.7449188,1.9633209,1.1238394,1.3692545
5,2026-05-11 16:15:16.625568,-0.746446,0.18659624,1.7449188,1.9633209,1.1238394,1.3692545
6,2026-05-11 16:15:16.628168,-0.746446,0.18659624,1.7449188,1.9633209,1.1238394,1.3692545
7,2026-05-11 16:15:16.631188,-0.746446,0.18659624,1.7449188,1.9633209,1.1238394,1.3692545
8,2026-05-11 16:15:16.634179,-0.746446,0.18659624,1.7449188,1.9633209,1.1238394,1.3692545
9,2026-05-11 16:15:16.637083,-0.746446,0.18659624,1.7449188,1.9633209,1.1238394,1.3692545
10,2026-05-11 16:15:16.639797,-0.746446,0.18659624,1.7449188,1.9633209,1.1238394,1.3692545
11,2026-05-11 16:15:16.642558,-0.746446,0.18659624,1.7449188,1.9633209,1.1238394,1.3692545
12,2026-05-11 16:15:16.645148,-0.746446,0.18659624,1.7449188,1.9633209,1.1238394,1.3692545
13,2026-05-11 16:15:16.647896,-0.746446,0.18659624,1.7449188,1.9633209,1.1238394,1.3692545
14,2026-05-11 16:15:16.651191,-0.746446,0.18659624,1.7449188,1.9633209,1.1238394,1.3692545
15,2026-05-11 16:15:16.654077,-0.746446,0.18659624,1.7449188,1.9633209,1.1238394,1.3692545
16,2026-05-11 16:15:16.656705,-0.746446,0.18659624,1.7449188,1.9633209,1.1238394,1.3692545
17,2026-05-11 16:15:16.659417,-0.746446,0.18659624,1.7449188,1.9633209,1.1238394,1.3692545
18,2026-05-11 16:15:16.661973,-0.746446,0.18659624,1.7449188,1.9633209,1.1238394,1.3692545
19,2026-05-11 16:15:16.664579,-0.746446,0.18659624,1.7449188,1.9633209,1.1238394,1.3692545
20,2026-05-11 16:15:16.667653,-0.746446,0.18659624,1.7449188,1.9633209,1.1238394,1.3692545
21,2026-05-11 16:15:16.670538,-0.746446,0.18659624,1.7449188,1.9633209,1.1238394,1.3692545
22,2026-05-11 16:15:16.673223,-0.746446,0.18659624,1.7449188,1.9633209,1.1238394,1.3692545
23,2026-05-11 16:15:16.675926,-0.746446,0.18659624,1.7449188,1.9633209,1.1238394,1.3692545
24,2026-05-11 16:15:16.678664,-0.746446,0.18659624,1.7449188,1.9633209,1.1238394,1.3692545
25,2026-05-11 16:15:16.681357,-0.746446,0.18659624,1.7449188,1.9633209,1.1238394,1.3692545
26,2026-05-11 16:15:16.684424,-0.746446,0.18659624,1.7449188,1.9633209,1.1238394,1.3692545
27,2026-05-11 16:15:16.687091,-0.746446,0.18659624,1.7449188,1.9633209,1.1238394,1.3692545
28,2026-05-11 16:15:16.689939,-0.746446,0.18659624,1.7449188,1.9633209,1.1238394,1.3692545
29,2026-05-11 16:15:16.692513,-0.746446,0.18659624,1.7449188,1.9633209,1.1238394,1.3692545
30,2026-05-11 16:15:16.695376,-0.746446,0.18659624,1.7449188,1.9633209,1.1238394,1.3692545
31,2026-05-11 16:15:16.697967,-0.746446,0.18659624,1.7449188,1.9633209,1.1238394,1.3692545
32,2026-05-11 16:15:16.701047,-0.746446,0.18659624,1.7449188,1.9633209,1.1238394,1.3692545
33,2026-05-11 16:15:16.703693,-0.746446,0.18659624,1.7449188,1.9633209,1.1238394,1.3692545
34,2026-05-11 16:15:16.706281,-0.746446,0.18659624,1.7449188,1.9633209,1.1238394,1.3692545
35,2026-05-11 16:15:16.709056,-0.746446,0.18659624,1.7449188,1.9633209,1.1238394,1.3692545
36,2026-05-11 16:15:16.711650,-0.746446,0.18659624,1.7449188,1.9633209,1.1238394,1.3692545
37,2026-05-11 16:15:16.714407,-0.746446,0.18659624,1.7449188,1.9633209,1.1238394,1.3692545
38,2026-05-11 16:15:16.717507,-0.746446,0.18659624,1.7449188,1.9633209,1.1238394,1.3692545
39,2026-05-11 16:15:16.720296,-0.746446,0.18659624,1.7449188,1.9633209,1.1238394,1.3692545
40,2026-05-11 16:15:16.722887,-0.746446,0.18659624,1.7449188,1.9633209,1.1238394,1.3692545
41,2026-05-11 16:15:16.725518,-0.746446,0.18659624,1.7449188,1.916437,1.1241448,1.7308867
42,2026-05-11 16:15:16.728401,-0.746446,0.18659624,1.7449188,1.916437,1.1241448,1.7308867
43,2026-05-11 16:15:16.731167,-0.746446,0.18659624,1.7449188,1.916437,1.1241448,1.7308867
44,2026-05-11 16:15:16.734273,-0.746446,0.18659624,1.7449188,1.916437,1.1241448,1.7308867
45,2026-05-11 16:15:16.737460,-0.746446,0.18659624,1.7449188,1.916437,1.1241448,1.7308867
46,2026-05-11 16:15:16.740267,-0.746446,0.18659624,1.7449188,1.916437,1.1241448,1.7308867
47,2026-05-11 16:15:16.742974,-0.746446,0.18659624,1.7449188,1.916437,1.1241448,1.7308867
48,2026-05-11 16:15:16.745579,-0.746446,0.18659624,1.7449188,1.916437,1.1241448,1.7308867
49,2026-05-11 16:15:16.748340,-0.746446,0.18659624,1.7449188,1.916437,1.1241448,1.7308867
50,2026-05-11 16:15:16.751449,-0.746446,0.18659624,1.7449188,1.916437,1.1241448,1.7308867
51,2026-05-11 16:15:16.754720,-0.746446,0.18659624,1.7449188,1.916437,1.1241448,1.7308867
52,2026-05-11 16:15:16.757351,-0.746446,0.18659624,1.7449188,1.916437,1.1241448,1.7308867
53,2026-05-11 16:15:16.759950,-0.746446,0.18659624,1.7449188,1.916437,1.1241448,1.7308867
54,2026-05-11 16:15:16.762728,-0.746446,0.18659624,1.7449188,1.916437,1.1241448,1.7308867
55,2026-05-11 16:15:16.765688,-0.78675324,0.17263202,1.6629019,1.916437,1.1241448,1.7308867
56,2026-05-11 16:15:16.768842,-0.78675324,0.17263202,1.6629019,1.916437,1.1241448,1.7308867
57,2026-05-11 16:15:16.771509,-0.78675324,0.17263202,1.6629019,1.916437,1.1241448,1.7308867
58,2026-05-11 16:15:16.774059,-0.78675324,0.17263202,1.6629019,1.916437,1.1241448,1.7308867
59,2026-05-11 16:15:16.777020,-0.78675324,0.17263202,1.6629019,1.9136881,1.2544118,2.1094704
60,2026-05-11 16:15:16.779628,-0.78675324,0.17263202,1.6629019,1.9136881,1.2544118,2.1094704
61,2026-05-11 16:15:16.782645,-0.78675324,0.17263202,1.6629019,1.9136881,1.2544118,2.1094704
62,2026-05-11 16:15:16.785465,-0.78675324,0.17263202,1.6629019,1.9136881,1.2544118,2.1094704
63,2026-05-11 16:15:16.788024,-0.78675324,0.17263202,1.6629019,1.9136881,1.2544118,2.1094704
64,2026-05-11 16:15:16.790852,-0.78675324,0.17263202,1.6629019,1.9136881,1.2544118,2.1094704
65,2026-05-11 16:15:16.793459,-0.78675324,0.17263202,1.6629019,1.9136881,1.2544118,2.1094704
66,2026-05-11 16:15:16.796054,-0.78675324,0.17263202,1.6629019,1.9136881,1.2544118,2.1094704
67,2026-05-11 16:15:16.799175,-0.78675324,0.17263202,1.6629019,1.9136881,1.2544118,2.1094704
68,2026-05-11 16:15:16.802037,-0.78675324,0.17263202,1.6629019,1.9136881,1.2544118,2.1094704
69,2026-05-11 16:15:16.804628,-0.78675324,0.17263202,1.6629019,1.9136881,1.2544118,2.1094704
70,2026-05-11 16:15:16.807529,-0.78675324,0.17263202,1.6629019,1.9136881,1.2544118,2.1094704
71,2026-05-11 16:15:16.810182,-0.78675324,0.17263202,1.6629019,1.9136881,1.2544118,2.1094704
72,2026-05-11 16:15:16.812900,-0.78675324,0.17263202,1.6629019,1.9136881,1.2544118,2.1094704
73,2026-05-11 16:15:16.815929,-0.6540625,0.12756842,1.691562,1.9136881,1.2544118,2.1094704
74,2026-05-11 16:15:16.818895,-0.6540625,0.12756842,1.691562,1.9136881,1.2544118,2.1094704
75,2026-05-11 16:15:16.821624,-0.6540625,0.12756842,1.691562,1.9136881,1.2544118,2.1094704
76,2026-05-11 16:15:16.824296,-0.6540625,0.12756842,1.691562,1.9136881,1.2544118,2.1094704
77,2026-05-11 16:15:16.826999,-0.6540625,0.12756842,1.691562,1.9136881,1.2544118,2.1094704
78,2026-05-11 16:15:16.829687,-0.6540625,0.12756842,1.691562,1.9136881,1.2544118,2.1094704
79,2026-05-11 16:15:16.832666,-0.6540625,0.12756842,1.691562,1.9136881,1.2544118,2.1094704
80,2026-05-11 16:15:16.835611,-0.6540625,0.12756842,1.691562,1.9136881,1.2544118,2.1094704
81,2026-05-11 16:15:16.838240,-0.6540625,0.12756842,1.691562,1.9136881,1.2544118,2.1094704
82,2026-05-11 16:15:16.840784,-0.6540625,0.12756842,1.691562,1.9136881,1.2544118,2.1094704
83,2026-05-11 16:15:16.843517,-0.6540625,0.12756842,1.691562,1.9136881,1.2544118,2.1094704
84,2026-05-11 16:15:16.846082,-0.6540625,0.12756842,1.691562,1.9136881,1.2544118,2.1094704
85,2026-05-11 16:15:16.849011,-0.49746805,0.11134796,1.7194296,2.0460932,1.3177891,2.245388
86,2026-05-11 16:15:16.852004,-0.49746805,0.11134796,1.7194296,2.0460932,1.3177891,2.245388
87,2026-05-11 16:15:16.854769,-0.49746805,0.11134796,1.7194296,2.0460932,1.3177891,2.245388
88,2026-05-11 16:15:16.857536,-0.49746805,0.11134796,1.7194296,2.0460932,1.3177891,2.245388
89,2026-05-11 16:15:16.860150,-0.49746805,0.11134796,1.7194296,2.0460932,1.3177891,2.245388
90,2026-05-11 16:15:16.862800,-0.49746805,0.11134796,1.7194296,2.0460932,1.3177891,2.245388
91,2026-05-11 16:15:16.865627,-0.49746805,0.11134796,1.7194296,2.0460932,1.3177891,2.245388
92,2026-05-11 16:15:16.868682,-0.49746805,0.11134796,1.7194296,2.0460932,1.3177891,2.245388
93,2026-05-11 16:15:16.871362,-0.49746805,0.11134796,1.7194296,2.0460932,1.3177891,2.245388
94,2026-05-11 16:15:16.873951,-0.49746805,0.11134796,1.7194296,2.0460932,1.3177891,2.245388
95,2026-05-11 16:15:16.876770,-0.49746805,0.11134796,1.7194296,2.0460932,1.3177891,2.245388
96,2026-05-11 16:15:16.879372,-0.49746805,0.11134796,1.7194296,2.0460932,1.3177891,2.245388
97,2026-05-11 16:15:16.882150,-0.49746805,0.11134796,1.7194296,2.0460932,1.3177891,2.245388
98,2026-05-11 16:15:16.885423,-0.49746805,0.11134796,1.7194296,2.0460932,1.3177891,2.245388
99,2026-05-11 16:15:16.888048,-0.49746805,0.11134796,1.7194296,2.0460932,1.3177891,2.245388
100,2026-05-11 16:15:16.890925,-0.49746805,0.11134796,1.7194296,2.0460932,1.3177891,2.245388
101,2026-05-11 16:15:16.893752,-0.49746805,0.11134796,1.7194296,2.0460932,1.3177891,2.245388
102,2026-05-11 16:15:16.896548,-0.49746805,0.11134796,1.7194296,2.0460932,1.3177891,2.245388
103,2026-05-11 16:15:16.900185,-0.49746805,0.11134796,1.7194296,2.0460932,1.3177891,2.245388
104,2026-05-11 16:15:16.903049,-0.49746805,0.11134796,1.7194296,2.0460932,1.3177891,2.245388
105,2026-05-11 16:15:16.905615,-0.49746805,0.11134796,1.7194296,2.0460932,1.3177891,2.245388
106,2026-05-11 16:15:16.908403,-0.49746805,0.11134796,1.7194296,2.0460932,1.3177891,2.245388
107,2026-05-11 16:15:16.910991,-0.49746805,0.11134796,1.7194296,2.0460932,1.3177891,2.245388
108,2026-05-11 16:15:16.913571,-0.49746805,0.11134796,1.7194296,2.0460932,1.3177891,2.245388
109,2026-05-11 16:15:16.916437,-0.49746805,0.11134796,1.7194296,2.0460932,1.3177891,2.245388
110,2026-05-11 16:15:16.919099,-0.49746805,0.11134796,1.7194296,2.0460932,1.3177891,2.245388
111,2026-05-11 16:15:16.921849,-0.49746805,0.11134796,1.7194296,2.0460932,1.3177891,2.245388
112,2026-05-11 16:15:16.924440,-0.49746805,0.11134796,1.7194296,2.0460932,1.3177891,2.245388
113,2026-05-11 16:15:16.927059,-0.49746805,0.11134796,1.7194296,2.0460932,1.3177891,2.245388
114,2026-05-11 16:15:16.929841,-0.49746805,0.11134796,1.7194296,2.0460932,1.3177891,2.245388
115,2026-05-11 16:15:16.932951,-0.49746805,0.11134796,1.7194296,2.0460932,1.3177891,2.245388
116,2026-05-11 16:15:16.935749,-0.49746805,0.11134796,1.7194296,2.0460932,1.3177891,2.245388
117,2026-05-11 16:15:16.938429,-0.49746805,0.11134796,1.7194296,2.0460932,1.3177891,2.245388
118,2026-05-11 16:15:16.941030,-0.49746805,0.11134796,1.7194296,2.0460932,1.3177891,2.245388
119,2026-05-11 16:15:16.943838,-0.49746805,0.11134796,1.7194296,2.0460932,1.3177891,2.245388
120,2026-05-11 16:15:16.946440,-0.49746805,0.11134796,1.7194296,2.0460932,1.3177891,2.245388
121,2026-05-11 16:15:16.949315,-0.49746805,0.11134796,1.7194296,2.0460932,1.3177891,2.245388
122,2026-05-11 16:15:16.952342,-0.49746805,0.11134796,1.7194296,2.0460932,1.3177891,2.245388
123,2026-05-11 16:15:16.954918,-0.49746805,0.11134796,1.7194296,2.0460932,1.3177891,2.245388
124,2026-05-11 16:15:16.957662,-0.49746805,0.11134796,1.7194296,2.0460932,1.3177891,2.245388
125,2026-05-11 16:15:16.960409,-0.29373667,0.022562291,1.6289365,2.5720482,1.3794864,2.4158194
126,2026-05-11 16:15:16.963098,-0.29373667,0.022562291,1.6289365,2.5720482,1.3794864,2.4158194
127,2026-05-11 16:15:16.966172,-0.29373667,0.022562291,1.6289365,2.5720482,1.3794864,2.4158194
128,2026-05-11 16:15:16.969066,-0.29373667,0.022562291,1.6289365,2.5720482,1.3794864,2.4158194
129,2026-05-11 16:15:16.971744,-0.29373667,0.022562291,1.6289365,2.5720482,1.3794864,2.4158194
130,2026-05-11 16:15:16.974428,-0.29373667,0.022562291,1.6289365,2.5720482,1.3794864,2.4158194
131,2026-05-11 16:15:16.976979,-0.29373667,0.022562291,1.6289365,2.5720482,1.3794864,2.4158194
132,2026-05-11 16:15:16.979769,-0.29373667,0.022562291,1.6289365,2.5720482,1.3794864,2.4158194
133,2026-05-11 16:15:16.982964,-0.29373667,0.022562291,1.6289365,2.5720482,1.3794864,2.4158194
134,2026-05-11 16:15:16.985857,-0.29373667,0.022562291,1.6289365,2.5720482,1.3794864,2.4158194
135,2026-05-11 16:15:16.988483,-0.29373667,0.022562291,1.6289365,2.5720482,1.3794864,2.4158194
136,2026-05-11 16:15:16.991036,-0.29373667,0.022562291,1.6289365,2.5720482,1.3794864,2.4158194
137,2026-05-11 16:15:16.993798,-0.29373667,0.022562291,1.6289365,2.5720482,1.3794864,2.4158194
138,2026-05-11 16:15:16.996395,-0.29373667,0.022562291,1.6289365,2.5720482,1.3794864,2.4158194
139,2026-05-11 16:15:16.999290,-0.29373667,0.022562291,1.6289365,2.5720482,1.3794864,2.4158194
140,2026-05-11 16:15:17.002263,-0.29373667,0.022562291,1.6289365,2.5720482,1.3794864,2.4158194
141,2026-05-11 16:15:17.004910,-0.29373667,0.022562291,1.6289365,2.5720482,1.3794864,2.4158194
142,2026-05-11 16:15:17.007701,-0.29373667,0.022562291,1.6289365,2.5720482,1.3794864,2.4158194
143,2026-05-11 16:15:17.010321,-0.29373667,0.022562291,1.6289365,2.5720482,1.3794864,2.4158194
144,2026-05-11 16:15:17.012966,-0.29373667,0.022562291,1.6289365,2.5720482,1.3794864,2.4158194
145,2026-05-11 16:15:17.016034,-0.29373667,0.022562291,1.6289365,2.5720482,1.3794864,2.4158194
146,2026-05-11 16:15:17.018947,-0.29373667,0.022562291,1.6289365,2.5720482,1.3794864,2.4158194
147,2026-05-11 16:15:17.021568,-0.29373667,0.022562291,1.6289365,2.7991374,1.3929255,2.4680483
148,2026-05-11 16:15:17.024332,-0.29373667,0.022562291,1.6289365,2.7991374,1.3929255,2.4680483
149,2026-05-11 16:15:17.026952,-0.29373667,0.022562291,1.6289365,2.7991374,1.3929255,2.4680483
150,2026-05-11 16:15:17.029528,-0.29373667,0.022562291,1.6289365,2.7991374,1.3929255,2.4680483
151,2026-05-11 16:15:17.032601,0.043905,0.015000875,1.4258149,2.7991374,1.3929255,2.4680483
152,2026-05-11 16:15:17.035660,0.043905,0.015000875,1.4258149,2.7991374,1.3929255,2.4680483
153,2026-05-11 16:15:17.038228,0.043905,0.015000875,1.4258149,2.7991374,1.3929255,2.4680483
154,2026-05-11 16:15:17.040761,0.043905,0.015000875,1.4258149,2.7991374,1.3929255,2.4680483
155,2026-05-11 16:15:17.043419,0.043905,0.015000875,1.4258149,2.7991374,1.3929255,2.4680483
156,2026-05-11 16:15:17.045923,0.043905,0.015000875,1.4258149,2.7991374,1.3929255,2.4680483
157,2026-05-11 16:15:17.048810,0.043905,0.015000875,1.4258149,2.7991374,1.3929255,2.4680483
158,2026-05-11 16:15:17.051801,0.043905,0.015000875,1.4258149,2.7991374,1.3929255,2.4680483
159,2026-05-11 16:15:17.054369,0.043905,0.015000875,1.4258149,2.7991374,1.3929255,2.4680483
160,2026-05-11 16:15:17.057089,0.043905,0.015000875,1.4258149,2.7991374,1.3929255,2.4680483
161,2026-05-11 16:15:17.059703,0.043905,0.015000875,1.4258149,2.7991374,1.3929255,2.4680483
162,2026-05-11 16:15:17.062469,0.043905,0.015000875,1.4258149,2.7991374,1.3929255,2.4680483
163,2026-05-11 16:15:17.065047,0.043905,0.015000875,1.4258149,2.7991374,1.3929255,2.4680483
164,2026-05-11 16:15:17.068449,0.043905,0.015000875,1.4258149,2.7991374,1.3929255,2.4680483
165,2026-05-11 16:15:17.071246,0.043905,0.015000875,1.4258149,2.7991374,1.3929255,2.4680483
166,2026-05-11 16:15:17.074023,0.043905,0.015000875,1.4258149,2.7991374,1.3929255,2.4680483
167,2026-05-11 16:15:17.076638,0.043905,0.015000875,1.4258149,2.7991374,1.3929255,2.4680483
168,2026-05-11 16:15:17.079343,0.043905,0.015000875,1.4258149,2.7991374,1.3929255,2.4680483
169,2026-05-11 16:15:17.082037,0.043905,0.015000875,1.4258149,2.7991374,1.3929255,2.4680483
170,2026-05-11 16:15:17.085460,0.043905,0.015000875,1.4258149,2.7991374,1.3929255,2.4680483
171,2026-05-11 16:15:17.088073,0.043905,0.015000875,1.4258149,2.7991374,1.3929255,2.4680483
172,2026-05-11 16:15:17.090882,0.043905,0.015000875,1.4258149,2.7991374,1.3929255,2.4680483
173,2026-05-11 16:15:17.093482,0.043905,0.015000875,1.4258149,2.7991374,1.3929255,2.4680483
174,2026-05-11 16:15:17.096237,0.043905,0.015000875,1.4258149,2.7991374,1.3929255,2.4680483
175,2026-05-11 16:15:17.099300,0.043905,0.015000875,1.4258149,2.7991374,1.3929255,2.4680483
176,2026-05-11 16:15:17.102107,0.043905,0.015000875,1.4258149,2.7991374,1.3929255,2.4680483
177,2026-05-11 16:15:17.104674,0.043905,0.015000875,1.4258149,2.7991374,1.3929255,2.4680483
178,2026-05-11 16:15:17.107335,0.043905,0.015000875,1.4258149,2.7991374,1.3929255,2.4680483
179,2026-05-11 16:15:17.109870,0.043905,0.015000875,1.4258149,2.7991374,1.3929255,2.4680483
180,2026-05-11 16:15:17.112536,0.043905,0.015000875,1.4258149,2.7991374,1.3929255,2.4680483
181,2026-05-11 16:15:17.115187,0.043905,0.015000875,1.4258149,2.7991374,1.3929255,2.4680483
182,2026-05-11 16:15:17.118375,0.043905,0.015000875,1.4258149,2.7991374,1.3929255,2.4680483
183,2026-05-11 16:15:17.121079,0.043905,0.015000875,1.4258149,2.7991374,1.3929255,2.4680483
184,2026-05-11 16:15:17.123656,0.043905,0.015000875,1.4258149,2.7991374,1.3929255,2.4680483
185,2026-05-11 16:15:17.126319,0.043905,0.015000875,1.4258149,2.7991374,1.3929255,2.4680483
186,2026-05-11 16:15:17.128854,0.043905,0.015000875,1.4258149,2.7991374,1.3929255,2.4680483
187,2026-05-11 16:15:17.132124,0.043905,0.015000875,1.4258149,4.1949644,1.2490667,2.515085
188,2026-05-11 16:15:17.135664,0.043905,0.015000875,1.4258149,4.1949644,1.2490667,2.515085
189,2026-05-11 16:15:17.138513,0.043905,0.015000875,1.4258149,4.1949644,1.2490667,2.515085
190,2026-05-11 16:15:17.141191,0.043905,0.015000875,1.4258149,4.1949644,1.2490667,2.515085
191,2026-05-11 16:15:17.144191,0.043905,0.015000875,1.4258149,4.1949644,1.2490667,2.515085
192,2026-05-11 16:15:17.147030,0.043905,0.015000875,1.4258149,4.1949644,1.2490667,2.515085
193,2026-05-11 16:15:17.150203,0.043905,0.015000875,1.4258149,4.1949644,1.2490667,2.515085
194,2026-05-11 16:15:17.152946,0.043905,0.015000875,1.4258149,4.1949644,1.2490667,2.515085
195,2026-05-11 16:15:17.155603,0.043905,0.015000875,1.4258149,4.1949644,1.2490667,2.515085
196,2026-05-11 16:15:17.158234,0.043905,0.015000875,1.4258149,4.1949644,1.2490667,2.515085
197,2026-05-11 16:15:17.160784,0.043905,0.015000875,1.4258149,4.1949644,1.2490667,2.515085
198,2026-05-11 16:15:17.163501,0.043905,0.015000875,1.4258149,4.1949644,1.2490667,2.515085
199,2026-05-11 16:15:17.166412,0.043905,0.015000875,1.4258149,4.1949644,1.2490667,2.515085
200,2026-05-11 16:15:17.169256,0.043905,0.015000875,1.4258149,4.1949644,1.2490667,2.515085
201,2026-05-11 16:15:17.171895,0.043905,0.015000875,1.4258149,4.1949644,1.2490667,2.515085
202,2026-05-11 16:15:17.174473,0.043905,0.015000875,1.4258149,4.1949644,1.2490667,2.515085
203,2026-05-11 16:15:17.177306,0.043905,0.015000875,1.4258149,4.1949644,1.2490667,2.515085
204,2026-05-11 16:15:17.180014,0.043905,0.015000875,1.4258149,4.1949644,1.2490667,2.515085
205,2026-05-11 16:15:17.183054,0.043905,0.015000875,1.4258149,4.1949644,1.2490667,2.515085
206,2026-05-11 16:15:17.185833,0.043905,0.015000875,1.4258149,4.1949644,1.2490667,2.515085
207,2026-05-11 16:15:17.188468,0.043905,0.015000875,1.4258149,4.1949644,1.2490667,2.515085
208,2026-05-11 16:15:17.191007,0.043905,0.015000875,1.4258149,4.1949644,1.2490667,2.515085
209,2026-05-11 16:15:17.193721,0.043905,0.015000875,1.4258149,4.1949644,1.2490667,2.515085
210,2026-05-11 16:15:17.196325,0.043905,0.015000875,1.4258149,4.1949644,1.2490667,2.515085
211,2026-05-11 16:15:17.199108,0.043905,0.015000875,1.4258149,4.1949644,1.2490667,2.515085
212,2026-05-11 16:15:17.202102,0.043905,0.015000875,1.4258149,4.1949644,1.2490667,2.515085
213,2026-05-11 16:15:17.204720,0.043905,0.015000875,1.4258149,4.1949644,1.2490667,2.515085
214,2026-05-11 16:15:17.207335,0.043905,0.015000875,1.4258149,4.1949644,1.2490667,2.515085
215,2026-05-11 16:15:17.209966,0.043905,0.015000875,1.4258149,4.1949644,1.2490667,2.515085
216,2026-05-11 16:15:17.212518,0.043905,0.015000875,1.4258149,4.1949644,1.2490667,2.515085
217,2026-05-11 16:15:17.215292,0.043905,0.015000875,1.4258149,4.1949644,1.2490667,2.515085
218,2026-05-11 16:15:17.218281,0.043905,0.015000875,1.4258149,4.1949644,1.2490667,2.515085
219,2026-05-11 16:15:17.221103,0.043905,0.015000875,1.4258149,4.1949644,1.2490667,2.515085
220,2026-05-11 16:15:17.223710,0.043905,0.015000875,1.4258149,4.1949644,1.2490667,2.515085
221,2026-05-11 16:15:17.226316,0.043905,0.015000875,1.4258149,4.1949644,1.2490667,2.515085
222,2026-05-11 16:15:17.228936,0.043905,0.015000875,1.4258149,4.1949644,1.2490667,2.515085
223,2026-05-11 16:15:17.231532,0.043905,0.015000875,1.4258149,4.1949644,1.2490667,2.515085
224,2026-05-11 16:15:17.234516,0.043905,0.015000875,1.4258149,4.1949644,1.2490667,2.515085
225,2026-05-11 16:15:17.237745,0.043905,0.015000875,1.4258149,4.1949644,1.2490667,2.515085
226,2026-05-11 16:15:17.240380,0.043905,0.015000875,1.4258149,4.1949644,1.2490667,2.515085
227,2026-05-11 16:15:17.242994,0.043905,0.015000875,1.4258149,4.1949644,1.2490667,2.515085
228,2026-05-11 16:15:17.245661,0.043905,0.015000875,1.4258149,4.1949644,1.2490667,2.515085
229,2026-05-11 16:15:17.248250,0.043905,0.015000875,1.4258149,4.1949644,1.2490667,2.515085
230,2026-05-11 16:15:17.250958,0.043905,0.015000875,1.4258149,4.1949644,1.2490667,2.515085
231,2026-05-11 16:15:17.254529,0.043905,0.015000875,1.4258149,4.1949644,1.2490667,2.515085
232,2026-05-11 16:15:17.257192,0.043905,0.015000875,1.4258149,4.1949644,1.2490667,2.515085
233,2026-05-11 16:15:17.259950,0.043905,0.015000875,1.4258149,4.1949644,1.2490667,2.515085
234,2026-05-11 16:15:17.262657,0.043905,0.015000875,1.4258149,4.1949644,1.2490667,2.515085
235,2026-05-11 16:15:17.265446,0.15147226,0.016464375,1.328858,4.993976,1.2820535,2.1766655
236,2026-05-11 16:15:17.268486,0.15147226,0.016464375,1.328858,4.993976,1.2820535,2.1766655
237,2026-05-11 16:15:17.271195,0.15147226,0.016464375,1.328858,4.993976,1.2820535,2.1766655
238,2026-05-11 16:15:17.273756,0.15147226,0.016464375,1.328858,4.993976,1.2820535,2.1766655
239,2026-05-11 16:15:17.276484,0.15147226,0.016464375,1.328858,4.993976,1.2820535,2.1766655
240,2026-05-11 16:15:17.279027,0.15147226,0.016464375,1.328858,4.993976,1.2820535,2.1766655
241,2026-05-11 16:15:17.281712,0.15147226,0.016464375,1.328858,4.993976,1.2820535,2.1766655
242,2026-05-11 16:15:17.285257,0.23348923,-0.006341833,1.1076256,4.993976,1.2820535,2.1766655
243,2026-05-11 16:15:17.287948,0.23348923,-0.006341833,1.1076256,4.993976,1.2820535,2.1766655
244,2026-05-11 16:15:17.290556,0.23348923,-0.006341833,1.1076256,4.993976,1.2820535,2.1766655
245,2026-05-11 16:15:17.293112,0.23348923,-0.006341833,1.1076256,4.993976,1.2820535,2.1766655
246,2026-05-11 16:15:17.295836,0.23348923,-0.006341833,1.1076256,4.993976,1.2820535,2.1766655
247,2026-05-11 16:15:17.298448,0.23348923,-0.006341833,1.1076256,4.993976,1.2820535,2.1766655
248,2026-05-11 16:15:17.301610,0.23348923,-0.006341833,1.1076256,4.993976,1.2820535,2.1766655
249,2026-05-11 16:15:17.304499,0.23348923,-0.006341833,1.1076256,4.993976,1.2820535,2.1766655
250,2026-05-11 16:15:17.307083,0.23348923,-0.006341833,1.1076256,4.993976,1.2820535,2.1766655
251,2026-05-11 16:15:17.309666,0.23348923,-0.006341833,1.1076256,4.993976,1.2820535,2.1766655
252,2026-05-11 16:15:17.312251,0.23348923,-0.006341833,1.1076256,4.993976,1.2820535,2.1766655
253,2026-05-11 16:15:17.314828,0.23348923,-0.006341833,1.1076256,4.993976,1.2820535,2.1766655
254,2026-05-11 16:15:17.318069,0.23348923,-0.006341833,1.1076256,4.993976,1.2820535,2.1766655
255,2026-05-11 16:15:17.320981,0.073175006,-0.0032928751,0.15128931,5.031697,1.6224581,1.7475327
256,2026-05-11 16:15:17.323683,0.073175006,-0.0032928751,0.15128931,5.031697,1.6224581,1.7475327
257,2026-05-11 16:15:17.326296,0.073175006,-0.0032928751,0.15128931,5.031697,1.6224581,1.7475327
258,2026-05-11 16:15:17.329290,0.073175006,-0.0032928751,0.15128931,5.031697,1.6224581,1.7475327
259,2026-05-11 16:15:17.332123,0.073175006,-0.0032928751,0.15128931,5.031697,1.6224581,1.7475327
260,2026-05-11 16:15:17.335471,0.073175006,-0.0032928751,0.15128931,5.031697,1.6224581,1.7475327
261,2026-05-11 16:15:17.338319,0.073175006,-0.0032928751,0.15128931,5.031697,1.6224581,1.7475327
262,2026-05-11 16:15:17.340976,0.073175006,-0.0032928751,0.15128931,5.031697,1.6224581,1.7475327
263,2026-05-11 16:15:17.343545,0.073175006,-0.0032928751,0.15128931,5.031697,1.6224581,1.7475327
264,2026-05-11 16:15:17.346383,0.073175006,-0.0032928751,0.15128931,5.031697,1.6224581,1.7475327
265,2026-05-11 16:15:17.349400,0.073175006,-0.0032928751,0.15128931,4.6120324,1.5804611,1.738217
266,2026-05-11 16:15:17.352355,0.073175006,-0.0032928751,0.15128931,4.6120324,1.5804611,1.738217
267,2026-05-11 16:15:17.355005,0.073175006,-0.0032928751,0.15128931,4.6120324,1.5804611,1.738217
268,2026-05-11 16:15:17.357594,0.073175006,-0.0032928751,0.15128931,4.6120324,1.5804611,1.738217
269,2026-05-11 16:15:17.360173,0.073175006,-0.0032928751,0.15128931,4.6120324,1.5804611,1.738217
270,2026-05-11 16:15:17.362994,0.073175006,-0.0032928751,0.15128931,4.6120324,1.5804611,1.738217
271,2026-05-11 16:15:17.366104,0.073175006,-0.0032928751,0.15128931,4.6120324,1.5804611,1.738217
272,2026-05-11 16:15:17.369042,0.073175006,-0.0032928751,0.15128931,4.6120324,1.5804611,1.738217
273,2026-05-11 16:15:17.371816,0.073175006,-0.0032928751,0.15128931,4.6120324,1.5804611,1.738217
274,2026-05-11 16:15:17.374491,0.073175006,-0.0032928751,0.15128931,4.6120324,1.5804611,1.738217
275,2026-05-11 16:15:17.377048,0.073175006,-0.0032928751,0.15128931,4.6120324,1.5804611,1.738217
276,2026-05-11 16:15:17.379749,0.073175006,-0.0032928751,0.15128931,4.6120324,1.5804611,1.738217
277,2026-05-11 16:15:17.382762,0.073175006,-0.0032928751,0.15128931,4.6120324,1.5804611,1.738217
278,2026-05-11 16:15:17.385676,0.011281146,-0.008354146,-0.10360361,4.6120324,1.5804611,1.738217
279,2026-05-11 16:15:17.388234,0.011281146,-0.008354146,-0.10360361,4.6120324,1.5804611,1.738217
280,2026-05-11 16:15:17.390760,0.011281146,-0.008354146,-0.10360361,4.6120324,1.5804611,1.738217
281,2026-05-11 16:15:17.393514,0.011281146,-0.008354146,-0.10360361,4.6120324,1.5804611,1.738217
282,2026-05-11 16:15:17.396126,0.011281146,-0.008354146,-0.10360361,4.6120324,1.5804611,1.738217
283,2026-05-11 16:15:17.399184,0.0064028124,0.010183521,-0.31684774,4.6120324,1.5804611,1.738217
284,2026-05-11 16:15:17.402056,0.0064028124,0.010183521,-0.31684774,4.6120324,1.5804611,1.738217
285,2026-05-11 16:15:17.404644,0.0064028124,0.010183521,-0.31684774,4.6120324,1.5804611,1.738217
286,2026-05-11 16:15:17.407349,0.0064028124,0.010183521,-0.31684774,4.6120324,1.5804611,1.738217
287,2026-05-11 16:15:17.409954,0.0064028124,0.010183521,-0.31684774,4.6120324,1.5804611,1.738217
288,2026-05-11 16:15:17.412526,0.0064028124,0.010183521,-0.31684774,4.6120324,1.5804611,1.738217
289,2026-05-11 16:15:17.415082,0.0064028124,0.010183521,-0.31684774,4.6120324,1.5804611,1.738217
290,2026-05-11 16:15:17.418282,0.0064028124,0.010183521,-0.31684774,4.6120324,1.5804611,1.738217
291,2026-05-11 16:15:17.420916,0.0064028124,0.010183521,-0.31684774,4.6120324,1.5804611,1.738217
292,2026-05-11 16:15:17.423570,0.0064028124,0.010183521,-0.31684774,4.6120324,1.5804611,1.738217
293,2026-05-11 16:15:17.426263,0.0064028124,0.010183521,-0.31684774,4.6120324,1.5804611,1.738217
294,2026-05-11 16:15:17.428977,0.0064028124,0.010183521,-0.31684774,4.6120324,1.5804611,1.738217
295,2026-05-11 16:15:17.431806,0.0064028124,0.010183521,-0.31684774,4.6120324,1.5804611,1.738217
296,2026-05-11 16:15:17.434863,0.0064028124,0.010183521,-0.31684774,4.6120324,1.5804611,1.738217
297,2026-05-11 16:15:17.437536,0.0064028124,0.010183521,-0.31684774,4.6120324,1.5804611,1.738217
298,2026-05-11 16:15:17.440107,0.0064028124,0.010183521,-0.31684774,4.6120324,1.5804611,1.738217
299,2026-05-11 16:15:17.442782,0.0064028124,0.010183521,-0.31684774,4.6120324,1.5804611,1.738217
300,2026-05-11 16:15:17.445303,0.0064028124,0.010183521,-0.31684774,4.6120324,1.5804611,1.738217
301,2026-05-11 16:15:17.447831,0.0064028124,0.010183521,-0.31684774,4.6120324,1.5804611,1.738217
302,2026-05-11 16:15:17.450824,0.0064028124,0.010183521,-0.31684774,4.6120324,1.5804611,1.738217
303,2026-05-11 16:15:17.453480,0.0064028124,0.010183521,-0.31684774,4.6120324,1.5804611,1.738217
304,2026-05-11 16:15:17.456043,0.0064028124,0.010183521,-0.31684774,4.6120324,1.5804611,1.738217
305,2026-05-11 16:15:17.458798,0.0064028124,0.010183521,-0.31684774,4.6120324,1.5804611,1.738217
306,2026-05-11 16:15:17.461389,0.0064028124,0.010183521,-0.31684774,4.6120324,1.5804611,1.738217
307,2026-05-11 16:15:17.463944,0.0064028124,0.010183521,-0.31684774,4.6120324,1.5804611,1.738217
308,2026-05-11 16:15:17.467048,0.0064028124,0.010183521,-0.31684774,4.6120324,1.5804611,1.738217
309,2026-05-11 16:15:17.469708,0.0064028124,0.010183521,-0.31684774,4.6120324,1.5804611,1.738217
310,2026-05-11 16:15:17.472289,0.0064028124,0.010183521,-0.31684774,4.6120324,1.5804611,1.738217
311,2026-05-11 16:15:17.474849,0.0064028124,0.010183521,-0.31684774,4.6120324,1.5804611,1.738217
312,2026-05-11 16:15:17.477453,0.0064028124,0.010183521,-0.31684774,4.0278926,1.3962852,1.7595973
313,2026-05-11 16:15:17.480079,0.0064028124,0.010183521,-0.31684774,4.0278926,1.3962852,1.7595973
314,2026-05-11 16:15:17.483233,0.0064028124,0.010183521,-0.31684774,4.0278926,1.3962852,1.7595973
315,2026-05-11 16:15:17.486022,0.0064028124,0.010183521,-0.31684774,4.0278926,1.3962852,1.7595973
316,2026-05-11 16:15:17.488728,0.0064028124,0.010183521,-0.31684774,4.0278926,1.3962852,1.7595973
317,2026-05-11 16:15:17.491403,0.0064028124,0.010183521,-0.31684774,4.0278926,1.3962852,1.7595973
318,2026-05-11 16:15:17.493980,0.0064028124,0.010183521,-0.31684774,4.0278926,1.3962852,1.7595973
319,2026-05-11 16:15:17.496630,0.0064028124,0.010183521,-0.31684774,4.0278926,1.3962852,1.7595973
320,2026-05-11 16:15:17.499411,0.0064028124,0.010183521,-0.31684774,4.0278926,1.3962852,1.7595973
321,2026-05-11 16:15:17.502263,0.0064028124,0.010183521,-0.31684774,4.0278926,1.3962852,1.7595973
322,2026-05-11 16:15:17.505075,0.0064028124,0.010183521,-0.31684774,4.0278926,1.3962852,1.7595973
323,2026-05-11 16:15:17.507693,0.0064028124,0.010183521,-0.31684774,4.0278926,1.3962852,1.7595973
324,2026-05-11 16:15:17.510367,0.0064028124,0.010183521,-0.31684774,4.0278926,1.3962852,1.7595973
325,2026-05-11 16:15:17.512940,0.0064028124,0.010183521,-0.31684774,4.0278926,1.3962852,1.7595973
326,2026-05-11 16:15:17.516022,0.0064028124,0.010183521,-0.31684774,4.0278926,1.3962852,1.7595973
327,2026-05-11 16:15:17.518938,0.0064028124,0.010183521,-0.31684774,4.0278926,1.3962852,1.7595973
328,2026-05-11 16:15:17.521556,0.0064028124,0.010183521,-0.31684774,4.0278926,1.3962852,1.7595973
329,2026-05-11 16:15:17.524361,0.0064028124,0.010183521,-0.31684774,4.0278926,1.3962852,1.7595973
330,2026-05-11 16:15:17.526944,0.0064028124,0.010183521,-0.31684774,4.0278926,1.3962852,1.7595973
331,2026-05-11 16:15:17.529846,0.0064028124,0.010183521,-0.31684774,4.0278926,1.3962852,1.7595973
332,2026-05-11 16:15:17.532985,0.0064028124,0.010183521,-0.31684774,4.0278926,1.3962852,1.7595973
333,2026-05-11 16:15:17.535875,0.0064028124,0.010183521,-0.31684774,4.0278926,1.3962852,1.7595973
334,2026-05-11 16:15:17.538526,0.0064028124,0.010183521,-0.31684774,4.0278926,1.3962852,1.7595973
335,2026-05-11 16:15:17.541107,0.0064028124,0.010183521,-0.31684774,4.0278926,1.3962852,1.7595973
336,2026-05-11 16:15:17.543859,0.0064028124,0.010183521,-0.31684774,4.0278926,1.3962852,1.7595973
337,2026-05-11 16:15:17.546419,0.0064028124,0.010183521,-0.31684774,4.0278926,1.3962852,1.7595973
338,2026-05-11 16:15:17.549390,0.0064028124,0.010183521,-0.31684774,4.0278926,1.3962852,1.7595973
339,2026-05-11 16:15:17.578249,0.38538834,-0.27245492,-0.83120704,1.264033,-1.745242,2.6907086
340,2026-05-11 16:15:17.585221,0.46716142,-0.28702894,-0.7262009,0.018784106,-1.8542814,2.844952
341,2026-05-11 16:15:17.591045,0.46716142,-0.28702894,-0.7262009,0.018784106,-1.8542814,2.844952
342,2026-05-11 16:15:17.594115,0.46716142,-0.28702894,-0.7262009,0.018784106,-1.8542814,2.844952
343,2026-05-11 16:15:17.596831,0.46716142,-0.28702894,-0.7262009,0.018784106,-1.8542814,2.844952
344,2026-05-11 16:15:17.600024,0.46716142,-0.28702894,-0.7262009,0.018784106,-1.8542814,2.844952
345,2026-05-11 16:15:17.603021,0.46716142,-0.28702894,-0.7262009,0.018784106,-1.8542814,2.844952
346,2026-05-11 16:15:17.605826,0.46716142,-0.28702894,-0.7262009,0.018784106,-1.8542814,2.844952
347,2026-05-11 16:15:17.608439,0.46716142,-0.28702894,-0.7262009,0.018784106,-1.8542814,2.844952
348,2026-05-11 16:15:17.611320,0.46716142,-0.28702894,-0.7262009,0.018784106,-1.8542814,2.844952
349,2026-05-11 16:15:17.613913,0.46716142,-0.28702894,-0.7262009,0.018784106,-1.8542814,2.844952
350,2026-05-11 16:15:17.616952,0.46716142,-0.28702894,-0.7262009,0.018784106,-1.8542814,2.844952
351,2026-05-11 16:15:17.619615,0.46716142,-0.28702894,-0.7262009,0.018784106,-1.8542814,2.844952
352,2026-05-11 16:15:17.622195,0.46716142,-0.28702894,-0.7262009,0.018784106,-1.8542814,2.844952
353,2026-05-11 16:15:17.624704,0.46716142,-0.28702894,-0.7262009,0.018784106,-1.8542814,2.844952
354,2026-05-11 16:15:17.627495,0.46716142,-0.28702894,-0.7262009,0.018784106,-1.8542814,2.844952
355,2026-05-11 16:15:17.630055,0.46716142,-0.28702894,-0.7262009,0.018784106,-1.8542814,2.844952
356,2026-05-11 16:15:17.633199,0.46716142,-0.28702894,-0.7262009,0.018784106,-1.8542814,2.844952
357,2026-05-11 16:15:17.636118,0.46716142,-0.28702894,-0.7262009,0.018784106,-1.8542814,2.844952
358,2026-05-11 16:15:17.638742,0.46716142,-0.28702894,-0.7262009,0.018784106,-1.8542814,2.844952
359,2026-05-11 16:15:17.641585,0.46716142,-0.28702894,-0.7262009,0.018784106,-1.8542814,2.844952
360,2026-05-11 16:15:17.644287,0.46716142,-0.28702894,-0.7262009,0.018784106,-1.8542814,2.844952
361,2026-05-11 16:15:17.646927,0.46716142,-0.28702894,-0.7262009,0.018784106,-1.8542814,2.844952
362,2026-05-11 16:15:17.649897,0.46716142,-0.28702894,-0.7262009,0.018784106,-1.8542814,2.844952
363,2026-05-11 16:15:17.652745,0.46716142,-0.28702894,-0.7262009,0.018784106,-1.8542814,2.844952
364,2026-05-11 16:15:17.655371,0.46716142,-0.28702894,-0.7262009,-0.5558874,-1.9417878,2.9686525
365,2026-05-11 16:15:17.658102,0.46716142,-0.28702894,-0.7262009,-0.5558874,-1.9417878,2.9686525
366,2026-05-11 16:15:17.660834,0.50039506,-0.32190904,-0.5372875,-0.5558874,-1.9417878,2.9686525
367,2026-05-11 16:15:17.663599,0.50039506,-0.32190904,-0.5372875,-0.5558874,-1.9417878,2.9686525
368,2026-05-11 16:15:17.666776,0.50039506,-0.32190904,-0.5372875,-0.5558874,-1.9417878,2.9686525
369,2026-05-11 16:15:17.669602,0.50039506,-0.32190904,-0.5372875,-0.5558874,-1.9417878,2.9686525
370,2026-05-11 16:15:17.672224,0.50039506,-0.32190904,-0.5372875,-0.5558874,-1.9417878,2.9686525
371,2026-05-11 16:15:17.674940,0.50039506,-0.32190904,-0.5372875,-0.5558874,-1.9417878,2.9686525
372,2026-05-11 16:15:17.677521,0.50039506,-0.32190904,-0.5372875,-0.5558874,-1.9417878,2.9686525
373,2026-05-11 16:15:17.680195,0.50039506,-0.32190904,-0.5372875,-0.5558874,-1.9417878,2.9686525
374,2026-05-11 16:15:17.683406,0.50039506,-0.32190904,-0.5372875,-0.5558874,-1.9417878,2.9686525
375,2026-05-11 16:15:17.686189,0.50039506,-0.32190904,-0.5372875,-0.5558874,-1.9417878,2.9686525
376,2026-05-11 16:15:17.688885,0.50039506,-0.32190904,-0.5372875,-0.5558874,-1.9417878,2.9686525
377,2026-05-11 16:15:17.691623,0.50039506,-0.32190904,-0.5372875,-0.5558874,-1.9417878,2.9686525
378,2026-05-11 16:15:17.694222,0.50039506,-0.32190904,-0.5372875,-0.5558874,-1.9417878,2.9686525
379,2026-05-11 16:15:17.696927,0.50039506,-0.32190904,-0.5372875,-0.5558874,-1.9417878,2.9686525
380,2026-05-11 16:15:17.699911,0.51417637,-0.33319017,-0.368802,-0.6649268,-2.0532708,3.0557008
381,2026-05-11 16:15:17.702792,0.51417637,-0.33319017,-0.368802,-0.6649268,-2.0532708,3.0557008
382,2026-05-11 16:15:17.705390,0.51417637,-0.33319017,-0.368802,-0.6649268,-2.0532708,3.0557008
383,2026-05-11 16:15:17.708106,0.51417637,-0.33319017,-0.368802,-0.6649268,-2.0532708,3.0557008
384,2026-05-11 16:15:17.710668,0.51417637,-0.33319017,-0.368802,-0.6649268,-2.0532708,3.0557008
385,2026-05-11 16:15:17.713368,0.51417637,-0.33319017,-0.368802,-0.6649268,-2.0532708,3.0557008
386,2026-05-11 16:15:17.716351,0.51417637,-0.33319017,-0.368802,-0.6649268,-2.0532708,3.0557008
387,2026-05-11 16:15:17.719201,0.51417637,-0.33319017,-0.368802,-0.6649268,-2.0532708,3.0557008
388,2026-05-11 16:15:17.721803,0.51417637,-0.33319017,-0.368802,-0.6649268,-2.0532708,3.0557008
389,2026-05-11 16:15:17.724348,0.51417637,-0.33319017,-0.368802,-0.6649268,-2.0532708,3.0557008
390,2026-05-11 16:15:17.727035,0.51417637,-0.33319017,-0.368802,-0.6649268,-2.0532708,3.0557008
391,2026-05-11 16:15:17.729564,0.51417637,-0.33319017,-0.368802,-0.6649268,-2.0532708,3.0557008
392,2026-05-11 16:15:17.732823,0.51417637,-0.33319017,-0.368802,-0.6649268,-2.0532708,3.0557008
393,2026-05-11 16:15:17.735622,0.51417637,-0.33319017,-0.368802,-0.6649268,-2.0532708,3.0557008
394,2026-05-11 16:15:17.738290,0.51417637,-0.33319017,-0.368802,-0.6649268,-2.0532708,3.0557008
395,2026-05-11 16:15:17.740859,0.51417637,-0.33319017,-0.368802,-0.6649268,-2.0532708,3.0557008
396,2026-05-11 16:15:17.743565,0.51417637,-0.33319017,-0.368802,-0.6649268,-2.0532708,3.0557008
397,2026-05-11 16:15:17.746132,0.51417637,-0.33319017,-0.368802,-0.6649268,-2.0532708,3.0557008
398,2026-05-11 16:15:17.749239,0.51417637,-0.33319017,-0.368802,-0.6649268,-2.0532708,3.0557008
399,2026-05-11 16:15:17.752244,0.51417637,-0.33319017,-0.368802,-0.6649268,-2.0532708,3.0557008
400,2026-05-11 16:15:17.754988,0.51417637,-0.33319017,-0.368802,-0.6649268,-2.0532708,3.0557008
401,2026-05-11 16:15:17.757738,0.51417637,-0.33319017,-0.368802,-0.6649268,-2.0532708,3.0557008
402,2026-05-11 16:15:17.760313,0.51417637,-0.33319017,-0.368802,-0.6649268,-2.0532708,3.0557008
403,2026-05-11 16:15:17.762951,0.51417637,-0.33319017,-0.368802,-0.6649268,-2.0532708,3.0557008
404,2026-05-11 16:15:17.766077,0.51417637,-0.33319017,-0.368802,-0.6649268,-2.0532708,3.0557008
405,2026-05-11 16:15:17.769063,0.51417637,-0.33319017,-0.368802,-0.6649268,-2.0532708,3.0557008
406,2026-05-11 16:15:17.771644,0.51417637,-0.33319017,-0.368802,-0.6649268,-2.0532708,3.0557008
407,2026-05-11 16:15:17.774467,0.51417637,-0.33319017,-0.368802,-0.6649268,-2.0532708,3.0557008
408,2026-05-11 16:15:17.777076,0.51417637,-0.33319017,-0.368802,-0.6649268,-2.0532708,3.0557008
409,2026-05-11 16:15:17.779803,0.51417637,-0.33319017,-0.368802,-0.6649268,-2.0532708,3.0557008
410,2026-05-11 16:15:17.782935,0.51417637,-0.33319017,-0.368802,-0.6649268,-2.0532708,3.0557008
411,2026-05-11 16:15:17.785915,0.51417637,-0.33319017,-0.368802,-0.6649268,-2.0532708,3.0557008
412,2026-05-11 16:15:17.788526,0.51417637,-0.33319017,-0.368802,-0.6649268,-2.0532708,3.0557008
413,2026-05-11 16:15:17.791099,0.51417637,-0.33319017,-0.368802,-0.6649268,-2.0532708,3.0557008
414,2026-05-11 16:15:17.793893,0.51417637,-0.33319017,-0.368802,-0.6649268,-2.0532708,3.0557008
415,2026-05-11 16:15:17.796484,0.51417637,-0.33319017,-0.368802,-0.6649268,-2.0532708,3.0557008
416,2026-05-11 16:15:17.799400,0.51417637,-0.33319017,-0.368802,-0.6649268,-2.0532708,3.0557008
417,2026-05-11 16:15:17.802257,0.51417637,-0.33319017,-0.368802,-0.6649268,-2.0532708,3.0557008
418,2026-05-11 16:15:17.804820,0.51417637,-0.33319017,-0.368802,-0.6649268,-2.0532708,3.0557008
419,2026-05-11 16:15:17.807372,0.51417637,-0.33319017,-0.368802,-0.6649268,-2.0532708,3.0557008
420,2026-05-11 16:15:17.810061,0.51417637,-0.33319017,-0.368802,-0.6649268,-2.0532708,3.0557008
421,2026-05-11 16:15:17.812641,0.51417637,-0.33319017,-0.368802,-0.6649268,-2.0532708,3.0557008
422,2026-05-11 16:15:17.815214,0.51417637,-0.33319017,-0.368802,-0.6649268,-2.0532708,3.0557008
423,2026-05-11 16:15:17.818428,0.550398,-0.36593598,-0.20031658,-0.6649268,-2.0532708,3.0557008
424,2026-05-11 16:15:17.821044,0.550398,-0.36593598,-0.20031658,-0.6649268,-2.0532708,3.0557008
425,2026-05-11 16:15:17.823803,0.550398,-0.36593598,-0.20031658,-0.6649268,-2.0532708,3.0557008
426,2026-05-11 16:15:17.826400,0.550398,-0.36593598,-0.20031658,-0.6649268,-2.0532708,3.0557008
427,2026-05-11 16:15:17.829139,0.550398,-0.36593598,-0.20031658,-0.6649268,-2.0532708,3.0557008
428,2026-05-11 16:15:17.831782,0.550398,-0.36593598,-0.20031658,-0.6649268,-2.0532708,3.0557008
429,2026-05-11 16:15:17.834963,0.550398,-0.36593598,-0.20031658,-0.6649268,-2.0532708,3.0557008
430,2026-05-11 16:15:17.837592,0.550398,-0.36593598,-0.20031658,-0.6649268,-2.0532708,3.0557008
431,2026-05-11 16:15:17.840272,0.550398,-0.36593598,-0.20031658,-0.6649268,-2.0532708,3.0557008
432,2026-05-11 16:15:17.842922,0.550398,-0.36593598,-0.20031658,-0.6649268,-2.0532708,3.0557008
433,2026-05-11 16:15:17.845655,0.550398,-0.36593598,-0.20031658,-0.6649268,-2.0532708,3.0557008
434,2026-05-11 16:15:17.848286,0.550398,-0.36593598,-0.20031658,-0.6649268,-2.0532708,3.0557008
435,2026-05-11 16:15:17.851505,0.550398,-0.36593598,-0.20031658,-0.6649268,-2.0532708,3.0557008
436,2026-05-11 16:15:17.854213,0.550398,-0.36593598,-0.20031658,-0.6649268,-2.0532708,3.0557008
437,2026-05-11 16:15:17.856789,0.550398,-0.36593598,-0.20031658,-0.6649268,-2.0532708,3.0557008
438,2026-05-11 16:15:17.859409,0.550398,-0.36593598,-0.20031658,-0.6649268,-2.0532708,3.0557008
439,2026-05-11 16:15:17.862081,0.550398,-0.36593598,-0.20031658,-0.6649268,-2.0532708,3.0557008
440,2026-05-11 16:15:17.864638,0.550398,-0.36593598,-0.20031658,-0.6649268,-2.0532708,3.0557008
441,2026-05-11 16:15:17.867792,0.550398,-0.36593598,-0.20031658,-0.6649268,-2.0532708,3.0557008
442,2026-05-11 16:15:17.870577,0.550398,-0.36593598,-0.20031658,-0.6649268,-2.0532708,3.0557008
443,2026-05-11 16:15:17.873200,0.550398,-0.36593598,-0.20031658,-0.6649268,-2.0532708,3.0557008
444,2026-05-11 16:15:17.875808,0.550398,-0.36593598,-0.20031658,-0.6649268,-2.0532708,3.0557008
445,2026-05-11 16:15:17.878431,0.550398,-0.36593598,-0.20031658,-0.6649268,-2.0532708,3.0557008
446,2026-05-11 16:15:17.880990,0.550398,-0.36593598,-0.20031658,-0.6649268,-2.0532708,3.0557008
447,2026-05-11 16:15:17.884170,0.550398,-0.36593598,-0.20031658,-0.6649268,-2.0532708,3.0557008
448,2026-05-11 16:15:17.886831,0.550398,-0.36593598,-0.20031658,-0.6649268,-2.0532708,3.0557008
449,2026-05-11 16:15:17.889444,0.550398,-0.36593598,-0.20031658,-0.6649268,-2.0532708,3.0557008
450,2026-05-11 16:15:17.892167,0.5923516,-0.37813184,-0.1972676,-0.6047566,-2.3603833,3.264922
451,2026-05-11 16:15:17.894754,0.5923516,-0.37813184,-0.1972676,-0.6047566,-2.3603833,3.264922
452,2026-05-11 16:15:17.897572,0.5923516,-0.37813184,-0.1972676,-0.6047566,-2.3603833,3.264922
453,2026-05-11 16:15:17.900669,0.5923516,-0.37813184,-0.1972676,-0.6047566,-2.3603833,3.264922
454,2026-05-11 16:15:17.903487,0.5923516,-0.37813184,-0.1972676,-0.6047566,-2.3603833,3.264922
455,2026-05-11 16:15:17.906092,0.5923516,-0.37813184,-0.1972676,-0.6047566,-2.3603833,3.264922
456,2026-05-11 16:15:17.908719,0.5923516,-0.37813184,-0.1972676,-0.6047566,-2.3603833,3.264922
457,2026-05-11 16:15:17.911302,0.5923516,-0.37813184,-0.1972676,-0.6047566,-2.3603833,3.264922
458,2026-05-11 16:15:17.913861,0.5923516,-0.37813184,-0.1972676,-0.6047566,-2.3603833,3.264922
459,2026-05-11 16:15:17.916762,0.5923516,-0.37813184,-0.1972676,-0.6047566,-2.3603833,3.264922
460,2026-05-11 16:15:17.919394,0.5923516,-0.37813184,-0.1972676,-0.6047566,-2.3603833,3.264922
461,2026-05-11 16:15:17.921962,0.5923516,-0.37813184,-0.1972676,-0.6047566,-2.3603833,3.264922
462,2026-05-11 16:15:17.924752,0.5923516,-0.37813184,-0.1972676,-0.6047566,-2.3603833,3.264922
463,2026-05-11 16:15:17.927514,0.5923516,-0.37813184,-0.1972676,-0.6047566,-2.3603833,3.264922
464,2026-05-11 16:15:17.930129,0.5923516,-0.37813184,-0.1972676,-0.6047566,-2.3603833,3.264922
465,2026-05-11 16:15:17.933309,0.5923516,-0.37813184,-0.1972676,-0.6047566,-2.3603833,3.264922
466,2026-05-11 16:15:17.936062,0.5923516,-0.37813184,-0.1972676,-0.45860708,-2.6284003,3.5124753
467,2026-05-11 16:15:17.938666,0.5923516,-0.37813184,-0.1972676,-0.45860708,-2.6284003,3.5124753
468,2026-05-11 16:15:17.941371,0.5923516,-0.37813184,-0.1972676,-0.45860708,-2.6284003,3.5124753
469,2026-05-11 16:15:17.943958,0.5923516,-0.37813184,-0.1972676,-0.45860708,-2.6284003,3.5124753
470,2026-05-11 16:15:17.946546,0.5923516,-0.37813184,-0.1972676,-0.45860708,-2.6284003,3.5124753
471,2026-05-11 16:15:17.949405,0.5923516,-0.37813184,-0.1972676,-0.45860708,-2.6284003,3.5124753
472,2026-05-11 16:15:17.952388,0.5923516,-0.37813184,-0.1972676,-0.45860708,-2.6284003,3.5124753
473,2026-05-11 16:15:17.955017,0.5923516,-0.37813184,-0.1972676,-0.45860708,-2.6284003,3.5124753
474,2026-05-11 16:15:17.957705,0.5923516,-0.37813184,-0.1972676,-0.45860708,-2.6284003,3.5124753
475,2026-05-11 16:15:17.960353,0.5923516,-0.37813184,-0.1972676,-0.45860708,-2.6284003,3.5124753
476,2026-05-11 16:15:17.962919,0.5923516,-0.37813184,-0.1972676,-0.45860708,-2.6284003,3.5124753
477,2026-05-11 16:15:17.965952,0.5923516,-0.37813184,-0.1972676,-0.45860708,-2.6284003,3.5124753
478,2026-05-11 16:15:17.968629,0.5923516,-0.37813184,-0.1972676,-0.45860708,-2.6284003,3.5124753
479,2026-05-11 16:15:17.971270,0.5923516,-0.37813184,-0.1972676,-0.45860708,-2.6284003,3.5124753
480,2026-05-11 16:15:17.974042,0.5923516,-0.37813184,-0.1972676,-0.45860708,-2.6284003,3.5124753
481,2026-05-11 16:15:17.976817,0.5923516,-0.37813184,-0.1972676,-0.45860708,-2.6284003,3.5124753
482,2026-05-11 16:15:17.979400,0.5923516,-0.37813184,-0.1972676,-0.45860708,-2.6284003,3.5124753
483,2026-05-11 16:15:17.982060,0.5923516,-0.37813184,-0.1972676,-0.45860708,-2.6284003,3.5124753
484,2026-05-11 16:15:17.985504,0.5923516,-0.37813184,-0.1972676,-0.45860708,-2.6284003,3.5124753
485,2026-05-11 16:15:17.988070,0.5923516,-0.37813184,-0.1972676,-0.45860708,-2.6284003,3.5124753
486,2026-05-11 16:15:17.990887,0.5923516,-0.37813184,-0.1972676,-0.45860708,-2.6284003,3.5124753
487,2026-05-11 16:15:17.993665,0.5923516,-0.37813184,-0.1972676,-0.45860708,-2.6284003,3.5124753
488,2026-05-11 16:15:17.996324,0.5923516,-0.37813184,-0.1972676,-0.45860708,-2.6284003,3.5124753
489,2026-05-11 16:15:17.999282,0.5923516,-0.37813184,-0.1972676,-0.45860708,-2.6284003,3.5124753
490,2026-05-11 16:15:18.002373,0.5923516,-0.37813184,-0.1972676,-0.45860708,-2.6284003,3.5124753
491,2026-05-11 16:15:18.005067,0.64076906,-0.41203624,-0.21952501,-0.45860708,-2.6284003,3.5124753
492,2026-05-11 16:15:18.007728,0.64076906,-0.41203624,-0.21952501,-0.45860708,-2.6284003,3.5124753
493,2026-05-11 16:15:18.010372,0.64076906,-0.41203624,-0.21952501,-0.45860708,-2.6284003,3.5124753
494,2026-05-11 16:15:18.013166,0.64076906,-0.41203624,-0.21952501,-0.45860708,-2.6284003,3.5124753
495,2026-05-11 16:15:18.016205,0.64076906,-0.41203624,-0.21952501,-0.4280638,-2.734691,3.707952
496,2026-05-11 16:15:18.019000,0.64076906,-0.41203624,-0.21952501,-0.4280638,-2.734691,3.707952
497,2026-05-11 16:15:18.021584,0.64076906,-0.41203624,-0.21952501,-0.4280638,-2.734691,3.707952
498,2026-05-11 16:15:18.024386,0.64076906,-0.41203624,-0.21952501,-0.4280638,-2.734691,3.707952
499,2026-05-11 16:15:18.026948,0.64076906,-0.41203624,-0.21952501,-0.4280638,-2.734691,3.707952
500,2026-05-11 16:15:18.029586,0.64076906,-0.41203624,-0.21952501,-0.4280638,-2.734691,3.707952
501,2026-05-11 16:15:18.032530,0.64076906,-0.41203624,-0.21952501,-0.4280638,-2.734691,3.707952
502,2026-05-11 16:15:18.035440,0.64076906,-0.41203624,-0.21952501,-0.4280638,-2.734691,3.707952
503,2026-05-11 16:15:18.038150,0.64076906,-0.41203624,-0.21952501,-0.4280638,-2.734691,3.707952
504,2026-05-11 16:15:18.040742,0.64076906,-0.41203624,-0.21952501,-0.4280638,-2.734691,3.707952
505,2026-05-11 16:15:18.043363,0.64076906,-0.41203624,-0.21952501,-0.4280638,-2.734691,3.707952
506,2026-05-11 16:15:18.046185,0.64076906,-0.41203624,-0.21952501,-0.4280638,-2.734691,3.707952
507,2026-05-11 16:15:18.049250,0.64076906,-0.41203624,-0.21952501,-0.4280638,-2.734691,3.707952
508,2026-05-11 16:15:18.051965,0.64076906,-0.41203624,-0.21952501,-0.4280638,-2.734691,3.707952
509,2026-05-11 16:15:18.054546,0.64076906,-0.41203624,-0.21952501,-0.4280638,-2.734691,3.707952
510,2026-05-11 16:15:18.057143,0.64076906,-0.41203624,-0.21952501,-0.4280638,-2.734691,3.707952
511,2026-05-11 16:15:18.059735,0.64076906,-0.41203624,-0.21952501,-0.4280638,-2.734691,3.707952
512,2026-05-11 16:15:18.062494,0.64076906,-0.41203624,-0.21952501,-0.4280638,-2.734691,3.707952
513,2026-05-11 16:15:18.065097,0.64076906,-0.41203624,-0.21952501,-0.4280638,-2.734691,3.707952
514,2026-05-11 16:15:18.068242,0.64076906,-0.41203624,-0.21952501,-0.4280638,-2.734691,3.707952
515,2026-05-11 16:15:18.071014,0.64076906,-0.41203624,-0.21952501,-0.48716503,-2.8069258,3.9845214
516,2026-05-11 16:15:18.073690,0.7145539,-0.4198416,-0.26739365,-0.55680364,-2.7931814,4.070348
517,2026-05-11 16:15:18.076382,0.7145539,-0.4198416,-0.26739365,-0.55680364,-2.7931814,4.070348
518,2026-05-11 16:15:18.078960,0.7145539,-0.4198416,-0.26739365,-0.55680364,-2.7931814,4.070348
519,2026-05-11 16:15:18.081787,0.7145539,-0.4198416,-0.26739365,-0.55680364,-2.7931814,4.070348
520,2026-05-11 16:15:18.084973,0.7145539,-0.4198416,-0.26739365,-0.55680364,-2.7931814,4.070348
521,2026-05-11 16:15:18.087705,0.7145539,-0.4198416,-0.26739365,-0.55680364,-2.7931814,4.070348
522,2026-05-11 16:15:18.090357,0.7145539,-0.4198416,-0.26739365,-0.55680364,-2.7931814,4.070348
523,2026-05-11 16:15:18.092952,0.7145539,-0.4198416,-0.26739365,-0.55680364,-2.7931814,4.070348
524,2026-05-11 16:15:18.095524,0.7145539,-0.4198416,-0.26739365,-0.55680364,-2.7931814,4.070348
525,2026-05-11 16:15:18.098060,0.7145539,-0.4198416,-0.26739365,-0.55680364,-2.7931814,4.070348
526,2026-05-11 16:15:18.101343,0.7145539,-0.4198416,-0.26739365,-0.55680364,-2.7931814,4.070348
527,2026-05-11 16:15:18.104030,0.7145539,-0.4198416,-0.26739365,-0.55680364,-2.7931814,4.070348
528,2026-05-11 16:15:18.106645,0.7145539,-0.4198416,-0.26739365,-0.55680364,-2.7931814,4.070348
529,2026-05-11 16:15:18.109262,0.78443605,-0.43215933,-0.30129808,-0.55680364,-2.7931814,4.070348
530,2026-05-11 16:15:18.111803,0.78443605,-0.43215933,-0.30129808,-0.55680364,-2.7931814,4.070348
531,2026-05-11 16:15:18.114580,1.0089613,-0.43752554,-0.32965338,-0.9289733,-2.6632197,4.2800274
532,2026-05-11 16:15:18.117524,1.0089613,-0.43752554,-0.32965338,-0.9289733,-2.6632197,4.2800274
533,2026-05-11 16:15:18.120182,1.0089613,-0.43752554,-0.32965338,-0.9289733,-2.6632197,4.2800274
534,2026-05-11 16:15:18.122998,1.0089613,-0.43752554,-0.32965338,-0.9289733,-2.6632197,4.2800274
535,2026-05-11 16:15:18.125630,1.0089613,-0.43752554,-0.32965338,-0.9289733,-2.6632197,4.2800274
536,2026-05-11 16:15:18.128246,1.0089613,-0.43752554,-0.32965338,-0.9289733,-2.6632197,4.2800274
537,2026-05-11 16:15:18.131155,1.0089613,-0.43752554,-0.32965338,-0.9289733,-2.6632197,4.2800274
538,2026-05-11 16:15:18.134274,1.0089613,-0.43752554,-0.32965338,-0.9289733,-2.6632197,4.2800274
539,2026-05-11 16:15:18.136951,1.0089613,-0.43752554,-0.32965338,-0.9289733,-2.6632197,4.2800274
540,2026-05-11 16:15:18.139696,1.2088511,-0.42734203,-0.24605095,-0.9289733,-2.6632197,4.2800274
541,2026-05-11 16:15:18.142335,1.2088511,-0.42734203,-0.24605095,-0.9289733,-2.6632197,4.2800274
542,2026-05-11 16:15:18.144955,1.2088511,-0.42734203,-0.24605095,-0.9289733,-2.6632197,4.2800274
543,2026-05-11 16:15:18.147755,1.2088511,-0.42734203,-0.24605095,-0.9289733,-2.6632197,4.2800274
544,2026-05-11 16:15:18.150836,1.2088511,-0.42734203,-0.24605095,-1.1537718,-2.666274,4.287816
545,2026-05-11 16:15:18.153646,1.2818431,-0.43770844,-0.17080265,-1.1134546,-2.9381092,4.2190933
546,2026-05-11 16:15:18.156438,1.2818431,-0.43770844,-0.17080265,-1.1134546,-2.9381092,4.2190933
547,2026-05-11 16:15:18.159021,1.2818431,-0.43770844,-0.17080265,-1.1134546,-2.9381092,4.2190933
548,2026-05-11 16:15:18.161770,1.2818431,-0.43770844,-0.17080265,-1.1134546,-2.9381092,4.2190933
549,2026-05-11 16:15:18.164317,1.2818431,-0.43770844,-0.17080265,-1.1134546,-2.9381092,4.2190933
550,2026-05-11 16:15:18.167325,1.2818431,-0.43770844,-0.17080265,-1.1134546,-2.9381092,4.2190933
551,2026-05-11 16:15:18.170074,1.2818431,-0.43770844,-0.17080265,-1.1134546,-2.9381092,4.2190933
552,2026-05-11 16:15:18.172651,1.2818431,-0.43770844,-0.17080265,-1.1134546,-2.9381092,4.2190933
553,2026-05-11 16:15:18.175274,1.3556279,-0.47063723,0.021708583,-0.74372846,-3.5659258,4.168086
554,2026-05-11 16:15:18.177917,1.3556279,-0.47063723,0.021708583,-0.74372846,-3.5659258,4.168086
555,2026-05-11 16:15:18.180454,1.3556279,-0.47063723,0.021708583,-0.74372846,-3.5659258,4.168086
556,2026-05-11 16:15:18.183503,1.3556279,-0.47063723,0.021708583,-0.74372846,-3.5659258,4.168086
557,2026-05-11 16:15:18.186240,1.3556279,-0.47063723,0.021708583,-0.74372846,-3.5659258,4.168086
558,2026-05-11 16:15:18.188805,1.3556279,-0.47063723,0.021708583,-0.74372846,-3.5659258,4.168086
559,2026-05-11 16:15:18.191343,1.3556279,-0.47063723,0.021708583,-0.74372846,-3.5659258,4.168086
560,2026-05-11 16:15:18.194012,1.3556279,-0.47063723,0.021708583,-0.74372846,-3.5659258,4.168086
561,2026-05-11 16:15:18.196669,1.3556279,-0.47063723,0.021708583,-0.74372846,-3.5659258,4.168086
562,2026-05-11 16:15:18.199531,1.3556279,-0.47063723,0.021708583,-0.74372846,-3.5659258,4.168086
563,2026-05-11 16:15:18.202170,1.3556279,-0.47063723,0.021708583,-0.74372846,-3.5659258,4.168086
564,2026-05-11 16:15:18.204831,1.3556279,-0.47063723,0.021708583,-0.74372846,-3.5659258,4.168086
565,2026-05-11 16:15:18.207396,1.3556279,-0.47063723,0.021708583,-0.74372846,-3.5659258,4.168086
566,2026-05-11 16:15:18.209965,1.3556279,-0.47063723,0.021708583,-0.74372846,-3.5659258,4.168086
567,2026-05-11 16:15:18.212613,1.3556279,-0.47063723,0.021708583,-0.74372846,-3.5659258,4.168086
568,2026-05-11 16:15:18.215460,1.3556279,-0.47063723,0.021708583,-0.74372846,-3.5659258,4.168086
569,2026-05-11 16:15:18.218097,1.3556279,-0.47063723,0.021708583,-0.74372846,-3.5659258,4.168086
570,2026-05-11 16:15:18.220737,1.3556279,-0.47063723,0.021708583,-0.74372846,-3.5659258,4.168086
571,2026-05-11 16:15:18.223291,1.3556279,-0.47063723,0.021708583,-0.74372846,-3.5659258,4.168086
572,2026-05-11 16:15:18.225799,1.3556279,-0.47063723,0.021708583,-0.74372846,-3.5659258,4.168086
573,2026-05-11 16:15:18.228536,1.3556279,-0.47063723,0.021708583,-0.74372846,-3.5659258,4.168086
574,2026-05-11 16:15:18.231118,1.3556279,-0.47063723,0.021708583,-0.74372846,-3.5659258,4.168086
575,2026-05-11 16:15:18.234257,1.3556279,-0.47063723,0.021708583,-0.74372846,-3.5659258,4.168086
576,2026-05-11 16:15:18.237049,1.3556279,-0.47063723,0.021708583,-0.74372846,-3.5659258,4.168086
577,2026-05-11 16:15:18.239832,1.3383098,-0.51655453,0.13250773,-0.74372846,-3.5659258,4.168086
578,2026-05-11 16:15:18.242546,1.3383098,-0.51655453,0.13250773,-0.74372846,-3.5659258,4.168086
579,2026-05-11 16:15:18.245299,1.3383098,-0.51655453,0.13250773,0.302531,-4.4538183,4.4197626
580,2026-05-11 16:15:18.248051,1.3383098,-0.51655453,0.13250773,0.302531,-4.4538183,4.4197626
581,2026-05-11 16:15:18.251013,1.3383098,-0.51655453,0.13250773,0.302531,-4.4538183,4.4197626
582,2026-05-11 16:15:18.253765,1.3180648,-0.55277616,0.030123709,0.302531,-4.4538183,4.4197626
583,2026-05-11 16:15:18.256505,1.3180648,-0.55277616,0.030123709,0.302531,-4.4538183,4.4197626
584,2026-05-11 16:15:18.259099,1.3180648,-0.55277616,0.030123709,0.302531,-4.4538183,4.4197626
585,2026-05-11 16:15:18.261727,1.3180648,-0.55277616,0.030123709,0.302531,-4.4538183,4.4197626
586,2026-05-11 16:15:18.264327,1.3180648,-0.55277616,0.030123709,0.302531,-4.4538183,4.4197626
587,2026-05-11 16:15:18.267574,1.3180648,-0.55277616,0.030123709,0.302531,-4.4538183,4.4197626
588,2026-05-11 16:15:18.270374,1.3180648,-0.55277616,0.030123709,0.302531,-4.4538183,4.4197626
589,2026-05-11 16:15:18.272957,1.3180648,-0.55277616,0.030123709,0.302531,-4.4538183,4.4197626
590,2026-05-11 16:15:18.275656,1.3539205,-0.56802094,-0.28093103,0.302531,-4.4538183,4.4197626
591,2026-05-11 16:15:18.278334,1.3539205,-0.56802094,-0.28093103,0.302531,-4.4538183,4.4197626
592,2026-05-11 16:15:18.280914,1.3539205,-0.56802094,-0.28093103,0.302531,-4.4538183,4.4197626
593,2026-05-11 16:15:18.283906,1.3539205,-0.56802094,-0.28093103,0.302531,-4.4538183,4.4197626
594,2026-05-11 16:15:18.286540,1.3539205,-0.56802094,-0.28093103,0.302531,-4.4538183,4.4197626
595,2026-05-11 16:15:18.289128,1.3539205,-0.56802094,-0.28093103,0.302531,-4.4538183,4.4197626
596,2026-05-11 16:15:18.291709,1.3539205,-0.56802094,-0.28093103,0.302531,-4.4538183,4.4197626
597,2026-05-11 16:15:18.294401,1.3539205,-0.56802094,-0.28093103,0.302531,-4.4538183,4.4197626
598,2026-05-11 16:15:18.297012,1.3539205,-0.56802094,-0.28093103,0.302531,-4.4538183,4.4197626
599,2026-05-11 16:15:18.300049,1.3539205,-0.56802094,-0.28093103,0.302531,-4.4538183,4.4197626
600,2026-05-11 16:15:18.302756,1.3539205,-0.56802094,-0.28093103,0.302531,-4.4538183,4.4197626
601,2026-05-11 16:15:18.305381,1.3539205,-0.56802094,-0.28093103,0.302531,-4.4538183,4.4197626
602,2026-05-11 16:15:18.308090,1.3539205,-0.56802094,-0.28093103,0.302531,-4.4538183,4.4197626
603,2026-05-11 16:15:18.310686,1.3539205,-0.56802094,-0.28093103,0.19792034,-4.2287145,4.874094
604,2026-05-11 16:15:18.313464,1.3539205,-0.56802094,-0.28093103,0.19792034,-4.2287145,4.874094
605,2026-05-11 16:15:18.316313,1.3539205,-0.56802094,-0.28093103,0.19792034,-4.2287145,4.874094
606,2026-05-11 16:15:18.319228,1.3539205,-0.56802094,-0.28093103,0.19792034,-4.2287145,4.874094
607,2026-05-11 16:15:18.321828,1.3539205,-0.56802094,-0.28093103,0.19792034,-4.2287145,4.874094
608,2026-05-11 16:15:18.324426,1.3539205,-0.56802094,-0.28093103,0.19792034,-4.2287145,4.874094
609,2026-05-11 16:15:18.327225,1.3539205,-0.56802094,-0.28093103,0.19792034,-4.2287145,4.874094
610,2026-05-11 16:15:18.329917,1.3539205,-0.56802094,-0.28093103,0.19792034,-4.2287145,4.874094
611,2026-05-11 16:15:18.332876,1.3539205,-0.56802094,-0.28093103,0.19792034,-4.2287145,4.874094
612,2026-05-11 16:15:18.335555,1.3539205,-0.56802094,-0.28093103,0.19792034,-4.2287145,4.874094
613,2026-05-11 16:15:18.338419,1.3539205,-0.56802094,-0.28093103,0.19792034,-4.2287145,4.874094
614,2026-05-11 16:15:18.341049,1.3539205,-0.56802094,-0.28093103,0.19792034,-4.2287145,4.874094
615,2026-05-11 16:15:18.343987,1.3539205,-0.56802094,-0.28093103,0.19792034,-4.2287145,4.874094
616,2026-05-11 16:15:18.346595,1.3539205,-0.56802094,-0.28093103,0.19792034,-4.2287145,4.874094
617,2026-05-11 16:15:18.349861,1.3539205,-0.56802094,-0.28093103,0.19792034,-4.2287145,4.874094
618,2026-05-11 16:15:18.352602,1.3539205,-0.56802094,-0.28093103,0.19792034,-4.2287145,4.874094
619,2026-05-11 16:15:18.355226,1.3539205,-0.56802094,-0.28093103,0.19792034,-4.2287145,4.874094
620,2026-05-11 16:15:18.357878,1.3539205,-0.56802094,-0.28093103,0.19792034,-4.2287145,4.874094
621,2026-05-11 16:15:18.360557,1.3539205,-0.56802094,-0.28093103,0.19792034,-4.2287145,4.874094
622,2026-05-11 16:15:18.363277,1.3539205,-0.56802094,-0.28093103,0.19792034,-4.2287145,4.874094
623,2026-05-11 16:15:18.366941,1.8485836,-0.47008842,-0.24653877,-0.6637051,-3.752087,5.4777813
624,2026-05-11 16:15:18.369682,1.8485836,-0.47008842,-0.24653877,-0.6637051,-3.752087,5.4777813
625,2026-05-11 16:15:18.372337,1.8485836,-0.47008842,-0.24653877,-0.6637051,-3.752087,5.4777813
626,2026-05-11 16:15:18.375059,1.8485836,-0.47008842,-0.24653877,-0.6637051,-3.752087,5.4777813
627,2026-05-11 16:15:18.377679,1.8485836,-0.47008842,-0.24653877,-0.6637051,-3.752087,5.4777813
628,2026-05-11 16:15:18.380409,1.8485836,-0.47008842,-0.24653877,-0.6637051,-3.752087,5.4777813
629,2026-05-11 16:15:18.383311,1.8485836,-0.47008842,-0.24653877,-0.6637051,-3.752087,5.4777813
630,2026-05-11 16:15:18.386090,1.8485836,-0.47008842,-0.24653877,-0.6637051,-3.752087,5.4777813
631,2026-05-11 16:15:18.388660,1.8485836,-0.47008842,-0.24653877,-0.6637051,-3.752087,5.4777813
632,2026-05-11 16:15:18.391279,1.8485836,-0.47008842,-0.24653877,-0.6637051,-3.752087,5.4777813
633,2026-05-11 16:15:18.394043,1.8485836,-0.47008842,-0.24653877,-0.6637051,-3.752087,5.4777813
634,2026-05-11 16:15:18.396599,1.8485836,-0.47008842,-0.24653877,-0.6637051,-3.752087,5.4777813
635,2026-05-11 16:15:18.399626,1.8485836,-0.47008842,-0.24653877,-0.6637051,-3.752087,5.4777813
636,2026-05-11 16:15:18.402521,1.8485836,-0.47008842,-0.24653877,-1.7027869,-3.3457088,5.9369993
637,2026-05-11 16:15:18.405299,1.8485836,-0.47008842,-0.24653877,-1.7027869,-3.3457088,5.9369993
638,2026-05-11 16:15:18.407996,1.8485836,-0.47008842,-0.24653877,-1.7027869,-3.3457088,5.9369993
639,2026-05-11 16:15:18.410592,1.8485836,-0.47008842,-0.24653877,-1.7027869,-3.3457088,5.9369993
640,2026-05-11 16:15:18.413137,1.8485836,-0.47008842,-0.24653877,-1.7027869,-3.3457088,5.9369993
641,2026-05-11 16:15:18.416205,1.8485836,-0.47008842,-0.24653877,-1.7027869,-3.3457088,5.9369993
642,2026-05-11 16:15:18.419041,1.8485836,-0.47008842,-0.24653877,-1.7027869,-3.3457088,5.9369993
643,2026-05-11 16:15:18.421640,1.8485836,-0.47008842,-0.24653877,-1.7027869,-3.3457088,5.9369993
644,2026-05-11 16:15:18.424208,1.8485836,-0.47008842,-0.24653877,-1.7027869,-3.3457088,5.9369993
645,2026-05-11 16:15:18.426918,1.8485836,-0.47008842,-0.24653877,-1.7027869,-3.3457088,5.9369993
646,2026-05-11 16:15:18.429462,1.8485836,-0.47008842,-0.24653877,-1.7027869,-3.3457088,5.9369993
647,2026-05-11 16:15:18.432571,1.8485836,-0.47008842,-0.24653877,-1.7027869,-3.3457088,5.9369993
648,2026-05-11 16:15:18.435595,1.8485836,-0.47008842,-0.24653877,-2.176971,-3.186884,6.1239243
649,2026-05-11 16:15:18.438315,1.8485836,-0.47008842,-0.24653877,-2.176971,-3.186884,6.1239243
650,2026-05-11 16:15:18.440881,1.8485836,-0.47008842,-0.24653877,-2.176971,-3.186884,6.1239243
651,2026-05-11 16:15:18.443620,1.8485836,-0.47008842,-0.24653877,-2.176971,-3.186884,6.1239243
652,2026-05-11 16:15:18.446205,1.8485836,-0.47008842,-0.24653877,-2.176971,-3.186884,6.1239243
653,2026-05-11 16:15:18.448834,1.8485836,-0.47008842,-0.24653877,-2.176971,-3.186884,6.1239243
654,2026-05-11 16:15:18.451931,1.8485836,-0.47008842,-0.24653877,-2.176971,-3.186884,6.1239243
655,2026-05-11 16:15:18.454523,1.8485836,-0.47008842,-0.24653877,-2.176971,-3.186884,6.1239243
656,2026-05-11 16:15:18.457097,1.8485836,-0.47008842,-0.24653877,-2.176971,-3.186884,6.1239243
657,2026-05-11 16:15:18.459745,1.8485836,-0.47008842,-0.24653877,-2.176971,-3.186884,6.1239243
658,2026-05-11 16:15:18.462288,1.8485836,-0.47008842,-0.24653877,-2.176971,-3.186884,6.1239243
659,2026-05-11 16:15:18.464939,1.8485836,-0.47008842,-0.24653877,-2.176971,-3.186884,6.1239243
660,2026-05-11 16:15:18.468186,2.0887196,-0.45240447,0.15080148,-2.176971,-3.186884,6.1239243
661,2026-05-11 16:15:18.470961,2.0887196,-0.45240447,0.15080148,-2.176971,-3.186884,6.1239243
662,2026-05-11 16:15:18.473731,2.0887196,-0.45240447,0.15080148,-2.176971,-3.186884,6.1239243
663,2026-05-11 16:15:18.476393,2.0887196,-0.45240447,0.15080148,-2.176971,-3.186884,6.1239243
664,2026-05-11 16:15:18.479295,2.0887196,-0.45240447,0.15080148,-2.176971,-3.186884,6.1239243
665,2026-05-11 16:15:18.482054,2.0887196,-0.45240447,0.15080148,-2.175902,-3.163213,6.1987553
666,2026-05-11 16:15:18.485415,2.0887196,-0.45240447,0.15080148,-2.175902,-3.163213,6.1987553
667,2026-05-11 16:15:18.488058,2.0887196,-0.45240447,0.15080148,-2.175902,-3.163213,6.1987553
668,2026-05-11 16:15:18.490854,2.0887196,-0.45240447,0.15080148,-2.175902,-3.163213,6.1987553
669,2026-05-11 16:15:18.493571,2.0887196,-0.45240447,0.15080148,-2.175902,-3.163213,6.1987553
670,2026-05-11 16:15:18.496237,2.0887196,-0.45240447,0.15080148,-2.175902,-3.163213,6.1987553
671,2026-05-11 16:15:18.499346,2.0887196,-0.45240447,0.15080148,-2.175902,-3.163213,6.1987553
672,2026-05-11 16:15:18.502117,2.0887196,-0.45240447,0.15080148,-2.175902,-3.163213,6.1987553
673,2026-05-11 16:15:18.504698,2.0887196,-0.45240447,0.15080148,-2.175902,-3.163213,6.1987553
674,2026-05-11 16:15:18.507529,2.0887196,-0.45240447,0.15080148,-2.175902,-3.163213,6.1987553
675,2026-05-11 16:15:18.510208,2.631495,-0.29001692,0.6816251,-2.175902,-3.163213,6.1987553
676,2026-05-11 16:15:18.512999,2.631495,-0.29001692,0.6816251,-2.175902,-3.163213,6.1987553
677,2026-05-11 16:15:18.516271,2.631495,-0.29001692,0.6816251,-2.175902,-3.163213,6.1987553
678,2026-05-11 16:15:18.519122,2.631495,-0.29001692,0.6816251,-2.175902,-3.163213,6.1987553
679,2026-05-11 16:15:18.521858,2.631495,-0.29001692,0.6816251,-2.175902,-3.163213,6.1987553
680,2026-05-11 16:15:18.524468,2.631495,-0.29001692,0.6816251,-2.175902,-3.163213,6.1987553
681,2026-05-11 16:15:18.527419,2.631495,-0.29001692,0.6816251,-1.7386752,-3.2818735,6.2015038
682,2026-05-11 16:15:18.530014,2.631495,-0.29001692,0.6816251,-1.7386752,-3.2818735,6.2015038
683,2026-05-11 16:15:18.533179,2.631495,-0.29001692,0.6816251,-1.7386752,-3.2818735,6.2015038
684,2026-05-11 16:15:18.535881,2.631495,-0.29001692,0.6816251,-1.7386752,-3.2818735,6.2015038
685,2026-05-11 16:15:18.538489,2.631495,-0.29001692,0.6816251,-1.7386752,-3.2818735,6.2015038
686,2026-05-11 16:15:18.541057,2.631495,-0.29001692,0.6816251,-1.7386752,-3.2818735,6.2015038
687,2026-05-11 16:15:18.543865,2.631495,-0.29001692,0.6816251,-1.7386752,-3.2818735,6.2015038
688,2026-05-11 16:15:18.546473,2.631495,-0.29001692,0.6816251,-1.7386752,-3.2818735,6.2015038
689,2026-05-11 16:15:18.549617,2.631495,-0.29001692,0.6816251,-1.7386752,-3.2818735,6.2015038
690,2026-05-11 16:15:18.552385,2.631495,-0.29001692,0.6816251,-1.7386752,-3.2818735,6.2015038
691,2026-05-11 16:15:18.554940,2.631495,-0.29001692,0.6816251,-1.7386752,-3.2818735,6.2015038
692,2026-05-11 16:15:18.557688,2.631495,-0.29001692,0.6816251,-1.7386752,-3.2818735,6.2015038
693,2026-05-11 16:15:18.560276,2.631495,-0.29001692,0.6816251,-1.7386752,-3.2818735,6.2015038
694,2026-05-11 16:15:18.562844,2.631495,-0.29001692,0.6816251,-1.7386752,-3.2818735,6.2015038
695,2026-05-11 16:15:18.566057,2.631495,-0.29001692,0.6816251,-1.7386752,-3.2818735,6.2015038
696,2026-05-11 16:15:18.568791,2.631495,-0.29001692,0.6816251,-1.7386752,-3.2818735,6.2015038
697,2026-05-11 16:15:18.571533,2.631495,-0.29001692,0.6816251,-1.7386752,-3.2818735,6.2015038
698,2026-05-11 16:15:18.574230,2.631495,-0.29001692,0.6816251,-1.7386752,-3.2818735,6.2015038
699,2026-05-11 16:15:18.576891,2.631495,-0.29001692,0.6816251,-1.7386752,-3.2818735,6.2015038
700,2026-05-11 16:15:18.579625,2.631495,-0.29001692,0.6816251,-1.7386752,-3.2818735,6.2015038
701,2026-05-11 16:15:18.582731,2.631495,-0.29001692,0.6816251,-1.7386752,-3.2818735,6.2015038
702,2026-05-11 16:15:18.585568,2.631495,-0.29001692,0.6816251,-1.7386752,-3.2818735,6.2015038
703,2026-05-11 16:15:18.588179,2.631495,-0.29001692,0.6816251,-1.7386752,-3.2818735,6.2015038
704,2026-05-11 16:15:18.591008,2.631495,-0.29001692,0.6816251,-1.7386752,-3.2818735,6.2015038
705,2026-05-11 16:15:18.593729,3.1776855,0.34691048,0.48636985,-1.2212723,-3.388164,6.0833015
706,2026-05-11 16:15:18.596323,3.1776855,0.34691048,0.48636985,-1.2212723,-3.388164,6.0833015
707,2026-05-11 16:15:18.599302,3.1776855,0.34691048,0.48636985,-1.2212723,-3.388164,6.0833015
708,2026-05-11 16:15:18.602256,3.1776855,0.34691048,0.48636985,-1.2212723,-3.388164,6.0833015
709,2026-05-11 16:15:18.604909,3.1776855,0.34691048,0.48636985,-1.2212723,-3.388164,6.0833015
710,2026-05-11 16:15:18.607648,3.1776855,0.34691048,0.48636985,-1.2212723,-3.388164,6.0833015
711,2026-05-11 16:15:18.610311,3.1776855,0.34691048,0.48636985,-1.2212723,-3.388164,6.0833015
712,2026-05-11 16:15:18.612909,3.1776855,0.34691048,0.48636985,-1.2212723,-3.388164,6.0833015
713,2026-05-11 16:15:18.616023,3.1776855,0.34691048,0.48636985,-1.2212723,-3.388164,6.0833015
714,2026-05-11 16:15:18.618825,3.1776855,0.34691048,0.48636985,-1.2212723,-3.388164,6.0833015
715,2026-05-11 16:15:18.621442,3.1776855,0.34691048,0.48636985,-1.2212723,-3.388164,6.0833015
716,2026-05-11 16:15:18.649337,3.3179376,0.6251584,0.5256404,-1.9546161,-2.8637362,6.058256
717,2026-05-11 16:15:18.656149,3.3179376,0.6251584,0.5256404,-1.9546161,-2.8637362,6.058256
718,2026-05-11 16:15:18.660471,3.3179376,0.6251584,0.5256404,-1.9546161,-2.8637362,6.058256
719,2026-05-11 16:15:18.663411,3.3179376,0.6251584,0.5256404,-1.9546161,-2.8637362,6.058256
720,2026-05-11 16:15:18.666326,3.3179376,0.6251584,0.5256404,-2.81334,-2.2434027,5.958838
721,2026-05-11 16:15:18.669342,3.3179376,0.6251584,0.5256404,-2.81334,-2.2434027,5.958838
722,2026-05-11 16:15:18.672109,3.3179376,0.6251584,0.5256404,-2.81334,-2.2434027,5.958838
723,2026-05-11 16:15:18.674916,3.3179376,0.6251584,0.5256404,-2.81334,-2.2434027,5.958838
724,2026-05-11 16:15:18.677673,3.3179376,0.6251584,0.5256404,-2.81334,-2.2434027,5.958838
725,2026-05-11 16:15:18.680291,3.3179376,0.6251584,0.5256404,-2.81334,-2.2434027,5.958838
726,2026-05-11 16:15:18.683599,3.3179376,0.6251584,0.5256404,-2.81334,-2.2434027,5.958838
727,2026-05-11 16:15:18.686550,3.6369805,1.0214621,0.9276761,-2.81334,-2.2434027,5.958838
728,2026-05-11 16:15:18.689211,3.6369805,1.0214621,0.9276761,-2.81334,-2.2434027,5.958838
729,2026-05-11 16:15:18.691797,3.6369805,1.0214621,0.9276761,-2.81334,-2.2434027,5.958838
730,2026-05-11 16:15:18.694407,3.6369805,1.0214621,0.9276761,-2.81334,-2.2434027,5.958838
731,2026-05-11 16:15:18.696972,3.6369805,1.0214621,0.9276761,-2.81334,-2.2434027,5.958838
732,2026-05-11 16:15:18.700228,3.6369805,1.0214621,0.9276761,-2.81334,-2.2434027,5.958838
733,2026-05-11 16:15:18.702932,3.6369805,1.0214621,0.9276761,-2.81334,-2.2434027,5.958838
734,2026-05-11 16:15:18.705693,3.6369805,1.0214621,0.9276761,-3.1117475,-1.8736764,5.743202
735,2026-05-11 16:15:18.708439,3.6369805,1.0214621,0.9276761,-3.1117475,-1.8736764,5.743202
736,2026-05-11 16:15:18.711061,3.6369805,1.0214621,0.9276761,-3.1117475,-1.8736764,5.743202
737,2026-05-11 16:15:18.713833,3.6369805,1.0214621,0.9276761,-3.1117475,-1.8736764,5.743202
738,2026-05-11 16:15:18.716770,3.6369805,1.0214621,0.9276761,-3.1117475,-1.8736764,5.743202
739,2026-05-11 16:15:18.719413,3.6369805,1.0214621,0.9276761,-3.1117475,-1.8736764,5.743202
740,2026-05-11 16:15:18.722133,3.6369805,1.0214621,0.9276761,-3.1117475,-1.8736764,5.743202
741,2026-05-11 16:15:18.724746,3.6369805,1.0214621,0.9276761,-3.1117475,-1.8736764,5.743202
742,2026-05-11 16:15:18.727416,3.6369805,1.0214621,0.9276761,-3.1117475,-1.8736764,5.743202
743,2026-05-11 16:15:18.729984,3.6369805,1.0214621,0.9276761,-3.1117475,-1.8736764,5.743202
744,2026-05-11 16:15:18.733067,3.6369805,1.0214621,0.9276761,-3.1117475,-1.8736764,5.743202
745,2026-05-11 16:15:18.735810,3.6369805,1.0214621,0.9276761,-3.1117475,-1.8736764,5.743202
746,2026-05-11 16:15:18.738542,4.3634253,1.7718108,2.0913415,-1.4049901,-0.79244494,3.3846517
747,2026-05-11 16:15:18.741236,4.3634253,1.7718108,2.0913415,-1.4049901,-0.79244494,3.3846517
748,2026-05-11 16:15:18.743819,4.3634253,1.7718108,2.0913415,-1.4049901,-0.79244494,3.3846517
749,2026-05-11 16:15:18.746565,4.3223863,2.0589006,2.2676933,-1.4049901,-0.79244494,3.3846517
750,2026-05-11 16:15:18.749833,3.7166803,2.3747728,1.8357779,-1.4049901,-0.79244494,3.3846517
751,2026-05-11 16:15:18.752658,3.7166803,2.3747728,1.8357779,-1.4049901,-0.79244494,3.3846517
752,2026-05-11 16:15:18.755260,3.7166803,2.3747728,1.8357779,-1.4049901,-0.79244494,3.3846517
753,2026-05-11 16:15:18.758024,3.7166803,2.3747728,1.8357779,-1.4049901,-0.79244494,3.3846517
754,2026-05-11 16:15:18.760867,3.7166803,2.3747728,1.8357779,-0.23335053,-0.47616947,2.2582161
755,2026-05-11 16:15:18.763598,3.7166803,2.3747728,1.8357779,-0.23335053,-0.47616947,2.2582161
756,2026-05-11 16:15:18.766770,3.7166803,2.3747728,1.8357779,-0.23335053,-0.47616947,2.2582161
757,2026-05-11 16:15:18.769507,3.7166803,2.3747728,1.8357779,-0.23335053,-0.47616947,2.2582161
758,2026-05-11 16:15:18.772097,3.7166803,2.3747728,1.8357779,-0.23335053,-0.47616947,2.2582161
759,2026-05-11 16:15:18.774928,3.7166803,2.3747728,1.8357779,-0.23335053,-0.47616947,2.2582161
760,2026-05-11 16:15:18.777624,3.7166803,2.3747728,1.8357779,-0.23335053,-0.47616947,2.2582161
761,2026-05-11 16:15:18.780230,3.7166803,2.3747728,1.8357779,-0.23335053,-0.47616947,2.2582161
762,2026-05-11 16:15:18.783216,3.7166803,2.3747728,1.8357779,-0.23335053,-0.47616947,2.2582161
763,2026-05-11 16:15:18.786182,3.7166803,2.3747728,1.8357779,-0.23335053,-0.47616947,2.2582161
764,2026-05-11 16:15:18.788951,3.7166803,2.3747728,1.8357779,-0.23335053,-0.47616947,2.2582161
765,2026-05-11 16:15:18.791578,3.7166803,2.3747728,1.8357779,-0.23335053,-0.47616947,2.2582161
766,2026-05-11 16:15:18.794683,3.3098881,2.4831936,1.5184423,0.3220787,-0.4007276,1.6079501
767,2026-05-11 16:15:18.797534,3.3098881,2.4831936,1.5184423,0.3220787,-0.4007276,1.6079501
768,2026-05-11 16:15:18.800811,3.3098881,2.4831936,1.5184423,0.3220787,-0.4007276,1.6079501
769,2026-05-11 16:15:18.803654,3.3098881,2.4831936,1.5184423,0.3220787,-0.4007276,1.6079501
770,2026-05-11 16:15:18.806305,3.3098881,2.4831936,1.5184423,0.3220787,-0.4007276,1.6079501
771,2026-05-11 16:15:18.808911,3.3098881,2.4831936,1.5184423,0.67164636,-0.35827246,0.9433287
772,2026-05-11 16:15:18.811541,3.3098881,2.4831936,1.5184423,0.67164636,-0.35827246,0.9433287
773,2026-05-11 16:15:18.814086,3.3098881,2.4831936,1.5184423,0.67164636,-0.35827246,0.9433287
774,2026-05-11 16:15:18.817048,3.3098881,2.4831936,1.5184423,0.67164636,-0.35827246,0.9433287
775,2026-05-11 16:15:18.819757,3.3098881,2.4831936,1.5184423,0.67164636,-0.35827246,0.9433287
776,2026-05-11 16:15:18.822381,3.3098881,2.4831936,1.5184423,0.67164636,-0.35827246,0.9433287
777,2026-05-11 16:15:18.825171,3.0351162,2.5597227,1.2858068,0.67164636,-0.35827246,0.9433287
778,2026-05-11 16:15:18.827874,3.0351162,2.5597227,1.2858068,0.7273878,-0.09697486,0.2863431
779,2026-05-11 16:15:18.830544,3.0351162,2.5597227,1.2858068,0.7273878,-0.09697486,0.2863431
780,2026-05-11 16:15:18.833601,3.0351162,2.5597227,1.2858068,0.7273878,-0.09697486,0.2863431
781,2026-05-11 16:15:18.836484,3.0351162,2.5597227,1.2858068,0.7273878,-0.09697486,0.2863431
782,2026-05-11 16:15:18.839075,3.0351162,2.5597227,1.2858068,0.7273878,-0.09697486,0.2863431
783,2026-05-11 16:15:18.841660,3.0351162,2.5597227,1.2858068,0.7273878,-0.09697486,0.2863431
784,2026-05-11 16:15:18.844387,3.0351162,2.5597227,1.2858068,0.7273878,-0.09697486,0.2863431
785,2026-05-11 16:15:18.846963,3.0351162,2.5597227,1.2858068,0.7273878,-0.09697486,0.2863431
786,2026-05-11 16:15:18.850123,3.0351162,2.5597227,1.2858068,0.7273878,-0.09697486,0.2863431
787,2026-05-11 16:15:18.852787,3.0351162,2.5597227,1.2858068,0.7273878,-0.09697486,0.2863431
788,2026-05-11 16:15:18.855418,3.0351162,2.5597227,1.2858068,0.7273878,-0.09697486,0.2863431
789,2026-05-11 16:15:18.858260,3.0351162,2.5597227,1.2858068,0.7273878,-0.09697486,0.2863431
790,2026-05-11 16:15:18.860935,3.0351162,2.5597227,1.2858068,0.7273878,-0.09697486,0.2863431
791,2026-05-11 16:15:18.863533,3.0351162,2.5597227,1.2858068,0.7273878,-0.09697486,0.2863431
792,2026-05-11 16:15:18.866473,3.0351162,2.5597227,1.2858068,0.7273878,-0.09697486,0.2863431
793,2026-05-11 16:15:18.869287,3.0351162,2.5597227,1.2858068,0.7273878,-0.09697486,0.2863431
794,2026-05-11 16:15:18.872031,3.0351162,2.5597227,1.2858068,0.7273878,-0.09697486,0.2863431
795,2026-05-11 16:15:18.874716,3.0351162,2.5597227,1.2858068,0.7273878,-0.09697486,0.2863431
796,2026-05-11 16:15:18.877303,3.0351162,2.5597227,1.2858068,0.7273878,-0.09697486,0.2863431
797,2026-05-11 16:15:18.880083,3.0351162,2.5597227,1.2858068,0.7273878,-0.09697486,0.2863431
798,2026-05-11 16:15:18.883223,3.0351162,2.5597227,1.2858068,0.7273878,-0.09697486,0.2863431
799,2026-05-11 16:15:18.885981,3.0351162,2.5597227,1.2858068,0.7273878,-0.09697486,0.2863431
800,2026-05-11 16:15:18.888542,3.0351162,2.5597227,1.2858068,0.7273878,-0.09697486,0.2863431
801,2026-05-11 16:15:18.891356,2.7770522,2.6422274,1.0440243,0.7273878,-0.09697486,0.2863431
802,2026-05-11 16:15:18.893959,2.7770522,2.6422274,1.0440243,0.7273878,-0.09697486,0.2863431
803,2026-05-11 16:15:18.896612,2.7770522,2.6422274,1.0440243,0.7273878,-0.09697486,0.2863431
804,2026-05-11 16:15:18.899571,2.7770522,2.6422274,1.0440243,0.7273878,-0.09697486,0.2863431
805,2026-05-11 16:15:18.902518,2.7770522,2.6422274,1.0440243,0.7273878,-0.09697486,0.2863431
806,2026-05-11 16:15:18.905208,2.7770522,2.6422274,1.0440243,0.7273878,-0.09697486,0.2863431
807,2026-05-11 16:15:18.907880,2.7770522,2.6422274,1.0440243,0.7273878,-0.09697486,0.2863431
808,2026-05-11 16:15:18.910665,2.7770522,2.6422274,1.0440243,0.7273878,-0.09697486,0.2863431
809,2026-05-11 16:15:18.913279,2.7770522,2.6422274,1.0440243,0.7273878,-0.09697486,0.2863431
810,2026-05-11 16:15:18.916343,2.7770522,2.6422274,1.0440243,0.7273878,-0.09697486,0.2863431
811,2026-05-11 16:15:18.919128,2.7770522,2.6422274,1.0440243,0.7273878,-0.09697486,0.2863431
812,2026-05-11 16:15:18.921835,2.7770522,2.6422274,1.0440243,0.7273878,-0.09697486,0.2863431
813,2026-05-11 16:15:18.924596,2.4322152,2.5133784,0.7774844,0.5174029,1.016327,-1.0517572
814,2026-05-11 16:15:18.927307,2.4322152,2.5133784,0.7774844,0.5174029,1.016327,-1.0517572
815,2026-05-11 16:15:18.929893,2.4322152,2.5133784,0.7774844,0.5174029,1.016327,-1.0517572
816,2026-05-11 16:15:18.932962,2.4322152,2.5133784,0.7774844,0.5174029,1.016327,-1.0517572
817,2026-05-11 16:15:18.935636,2.4322152,2.5133784,0.7774844,0.5174029,1.016327,-1.0517572
818,2026-05-11 16:15:18.938187,2.4322152,2.5133784,0.7774844,0.5174029,1.016327,-1.0517572
819,2026-05-11 16:15:18.940946,2.4322152,2.5133784,0.7774844,0.5174029,1.016327,-1.0517572
820,2026-05-11 16:15:18.943594,2.4322152,2.5133784,0.7774844,0.5174029,1.016327,-1.0517572
821,2026-05-11 16:15:18.946182,2.4322152,2.5133784,0.7774844,0.5174029,1.016327,-1.0517572
822,2026-05-11 16:15:18.949238,2.4322152,2.5133784,0.7774844,0.5174029,1.016327,-1.0517572
823,2026-05-11 16:15:18.951963,2.4322152,2.5133784,0.7774844,0.5174029,1.016327,-1.0517572
824,2026-05-11 16:15:18.954548,2.4322152,2.5133784,0.7774844,0.5174029,1.016327,-1.0517572
825,2026-05-11 16:15:18.957131,2.4322152,2.5133784,0.7774844,0.5174029,1.016327,-1.0517572
826,2026-05-11 16:15:18.959694,2.4322152,2.5133784,0.7774844,0.5174029,1.016327,-1.0517572
827,2026-05-11 16:15:18.962268,2.4322152,2.5133784,0.7774844,0.5174029,1.016327,-1.0517572
828,2026-05-11 16:15:18.964817,2.4322152,2.5133784,0.7774844,0.5174029,1.016327,-1.0517572
829,2026-05-11 16:15:18.967983,2.17781,2.411421,0.6758931,0.5174029,1.016327,-1.0517572
830,2026-05-11 16:15:18.970715,2.17781,2.411421,0.6758931,0.5174029,1.016327,-1.0517572
831,2026-05-11 16:15:18.973468,2.17781,2.411421,0.6758931,0.5174029,1.016327,-1.0517572
832,2026-05-11 16:15:18.976269,2.17781,2.411421,0.6758931,0.5174029,1.016327,-1.0517572
833,2026-05-11 16:15:18.978862,2.17781,2.411421,0.6758931,0.5174029,1.016327,-1.0517572
834,2026-05-11 16:15:18.981760,2.17781,2.411421,0.6758931,0.5174029,1.016327,-1.0517572
835,2026-05-11 16:15:18.984804,2.17781,2.411421,0.6758931,0.5174029,1.016327,-1.0517572
836,2026-05-11 16:15:18.987531,2.17781,2.411421,0.6758931,0.5174029,1.016327,-1.0517572
837,2026-05-11 16:15:18.990101,2.17781,2.411421,0.6758931,0.5174029,1.016327,-1.0517572
838,2026-05-11 16:15:18.992702,2.17781,2.411421,0.6758931,0.5174029,1.016327,-1.0517572
839,2026-05-11 16:15:18.995263,2.17781,2.411421,0.6758931,0.5174029,1.016327,-1.0517572
840,2026-05-11 16:15:18.997897,2.17781,2.411421,0.6758931,0.47616947,1.3756685,-1.6893479
841,2026-05-11 16:15:19.000962,2.17781,2.411421,0.6758931,0.47616947,1.3756685,-1.6893479
842,2026-05-11 16:15:19.003676,2.0671937,2.3259284,0.6085111,0.47616947,1.3756685,-1.6893479
843,2026-05-11 16:15:19.006376,2.0671937,2.3259284,0.6085111,0.47616947,1.3756685,-1.6893479
844,2026-05-11 16:15:19.009032,2.0671937,2.3259284,0.6085111,0.47616947,1.3756685,-1.6893479
845,2026-05-11 16:15:19.011598,2.0671937,2.3259284,0.6085111,0.47616947,1.3756685,-1.6893479
846,2026-05-11 16:15:19.014346,2.0671937,2.3259284,0.6085111,0.47616947,1.3756685,-1.6893479
847,2026-05-11 16:15:19.017338,2.0671937,2.3259284,0.6085111,0.5540548,1.2644911,-2.133905
848,2026-05-11 16:15:19.020051,2.0671937,2.3259284,0.6085111,0.5540548,1.2644911,-2.133905
849,2026-05-11 16:15:19.022589,2.0671937,2.3259284,0.6085111,0.5540548,1.2644911,-2.133905
850,2026-05-11 16:15:19.025140,2.0671937,2.3259284,0.6085111,0.5540548,1.2644911,-2.133905
851,2026-05-11 16:15:19.027920,2.0671937,2.3259284,0.6085111,0.5540548,1.2644911,-2.133905
852,2026-05-11 16:15:19.030657,2.0671937,2.3259284,0.6085111,0.5540548,1.2644911,-2.133905
853,2026-05-11 16:15:19.033660,2.0671937,2.3259284,0.6085111,0.5540548,1.2644911,-2.133905
854,2026-05-11 16:15:19.036396,2.0671937,2.3259284,0.6085111,0.5540548,1.2644911,-2.133905
855,2026-05-11 16:15:19.039240,2.0671937,2.3259284,0.6085111,0.5540548,1.2644911,-2.133905
856,2026-05-11 16:15:19.041850,2.0671937,2.3259284,0.6085111,0.5540548,1.2644911,-2.133905
857,2026-05-11 16:15:19.044528,2.0671937,2.3259284,0.6085111,0.5540548,1.2644911,-2.133905
858,2026-05-11 16:15:19.047105,2.0671937,2.3259284,0.6085111,0.5540548,1.2644911,-2.133905
859,2026-05-11 16:15:19.050753,2.0671937,2.3259284,0.6085111,0.5540548,1.2644911,-2.133905
860,2026-05-11 16:15:19.053509,2.0671937,2.3259284,0.6085111,0.5540548,1.2644911,-2.133905
861,2026-05-11 16:15:19.056167,2.0671937,2.3259284,0.6085111,0.5540548,1.2644911,-2.133905
862,2026-05-11 16:15:19.058951,2.0671937,2.3259284,0.6085111,0.5540548,1.2644911,-2.133905
863,2026-05-11 16:15:19.061568,2.0671937,2.3259284,0.6085111,0.5540548,1.2644911,-2.133905
864,2026-05-11 16:15:19.064330,2.0671937,2.3259284,0.6085111,0.5540548,1.2644911,-2.133905
865,2026-05-11 16:15:19.067493,2.0671937,2.3259284,0.6085111,0.5540548,1.2644911,-2.133905
866,2026-05-11 16:15:19.070293,1.9551141,2.2054946,0.5688137,0.72112644,0.6824892,-2.770121
867,2026-05-11 16:15:19.073028,1.9551141,2.2054946,0.5688137,0.72112644,0.6824892,-2.770121
868,2026-05-11 16:15:19.075665,1.9551141,2.2054946,0.5688137,0.72112644,0.6824892,-2.770121
869,2026-05-11 16:15:19.078514,1.9053551,2.0944514,0.58289987,0.7475463,0.39675698,-3.1626022
870,2026-05-11 16:15:19.081120,1.9053551,2.0944514,0.58289987,0.7475463,0.39675698,-3.1626022
871,2026-05-11 16:15:19.084934,1.9053551,2.0944514,0.58289987,0.7475463,0.39675698,-3.1626022
872,2026-05-11 16:15:19.087758,1.9053551,2.0944514,0.58289987,0.7475463,0.39675698,-3.1626022
873,2026-05-11 16:15:19.090392,1.9053551,2.0944514,0.58289987,0.7475463,0.39675698,-3.1626022
874,2026-05-11 16:15:19.093211,1.9053551,2.0944514,0.58289987,0.7475463,0.39675698,-3.1626022
875,2026-05-11 16:15:19.096034,1.9053551,2.0944514,0.58289987,0.7475463,0.39675698,-3.1626022
876,2026-05-11 16:15:19.099163,1.9053551,2.0944514,0.58289987,0.6412558,0.3370449,-3.601356
877,2026-05-11 16:15:19.102151,1.9053551,2.0944514,0.58289987,0.6412558,0.3370449,-3.601356
878,2026-05-11 16:15:19.104784,1.9053551,2.0944514,0.58289987,0.6412558,0.3370449,-3.601356
879,2026-05-11 16:15:19.107364,1.9053551,2.0944514,0.58289987,0.6412558,0.3370449,-3.601356
880,2026-05-11 16:15:19.110264,1.9053551,2.0944514,0.58289987,0.6412558,0.3370449,-3.601356
881,2026-05-11 16:15:19.113251,1.8818171,1.9626147,0.67930794,0.6412558,0.3370449,-3.601356
882,2026-05-11 16:15:19.116252,1.8818171,1.9626147,0.67930794,0.6412558,0.3370449,-3.601356
883,2026-05-11 16:15:19.119169,1.8893176,1.7690666,0.8526717,0.6412558,0.3370449,-3.601356
884,2026-05-11 16:15:19.121807,1.8893176,1.7690666,0.8526717,0.6412558,0.3370449,-3.601356
885,2026-05-11 16:15:19.124408,1.8893176,1.7690666,0.8526717,0.6412558,0.3370449,-3.601356
886,2026-05-11 16:15:19.127342,1.8893176,1.7690666,0.8526717,0.5036584,0.5852089,-4.0382776
887,2026-05-11 16:15:19.130110,1.8893176,1.7690666,0.8526717,0.48991394,0.82741696,-4.267963
888,2026-05-11 16:15:19.133135,1.8893176,1.7690666,0.8526717,0.48991394,0.82741696,-4.267963
889,2026-05-11 16:15:19.135986,1.8893176,1.7690666,0.8526717,0.48991394,0.82741696,-4.267963
890,2026-05-11 16:15:19.138679,1.8893176,1.7690666,0.8526717,0.48991394,0.82741696,-4.267963
891,2026-05-11 16:15:19.141237,1.8893176,1.7690666,0.8526717,0.48991394,0.82741696,-4.267963
892,2026-05-11 16:15:19.144067,1.8893176,1.7690666,0.8526717,0.48991394,0.82741696,-4.267963
893,2026-05-11 16:15:19.146982,2.216044,1.1592749,1.2856238,1.4993688,2.3017402,-5.401118
894,2026-05-11 16:15:19.150015,2.216044,1.1592749,1.2856238,2.0744984,2.5686884,-6.01519
895,2026-05-11 16:15:19.152838,2.32416,0.8862712,1.2414749,2.0744984,2.5686884,-6.01519
896,2026-05-11 16:15:19.155474,2.32416,0.8862712,1.2414749,2.0744984,2.5686884,-6.01519
897,2026-05-11 16:15:19.158051,2.32416,0.8862712,1.2414749,2.0744984,2.5686884,-6.01519
898,2026-05-11 16:15:19.160736,2.32416,0.8862712,1.2414749,2.0744984,2.5686884,-6.01519
899,2026-05-11 16:15:19.163295,2.32416,0.8862712,1.2414749,2.0744984,2.5686884,-6.01519
900,2026-05-11 16:15:19.166422,2.2823892,0.7194932,1.1990334,2.3868032,2.6838365,-6.3346725
901,2026-05-11 16:15:19.169365,2.2823892,0.7194932,1.1990334,2.3868032,2.6838365,-6.3346725
902,2026-05-11 16:15:19.171969,2.2823892,0.7194932,1.1990334,2.3868032,2.6838365,-6.3346725
903,2026-05-11 16:15:19.174578,2.2823892,0.7194932,1.1990334,2.3868032,2.6838365,-6.3346725
904,2026-05-11 16:15:19.177170,2.2823892,0.7194932,1.1990334,2.3868032,2.6838365,-6.3346725
905,2026-05-11 16:15:19.179714,2.2823892,0.7194932,1.1990334,2.3868032,2.6838365,-6.3346725
906,2026-05-11 16:15:19.182776,2.2823892,0.7194932,1.1990334,2.3868032,2.6838365,-6.3346725
907,2026-05-11 16:15:19.185483,2.2823892,0.7194932,1.1990334,2.3868032,2.6838365,-6.3346725
908,2026-05-11 16:15:19.188060,2.2823892,0.7194932,1.1990334,2.3868032,2.6838365,-6.3346725
909,2026-05-11 16:15:19.190816,2.2823892,0.7194932,1.1990334,2.3868032,2.6838365,-6.3346725
910,2026-05-11 16:15:19.193468,2.2823892,0.7194932,1.1990334,2.3868032,2.6838365,-6.3346725
911,2026-05-11 16:15:19.196052,2.2823892,0.7194932,1.1990334,2.3868032,2.6838365,-6.3346725
912,2026-05-11 16:15:19.199075,2.2823892,0.7194932,1.1990334,2.3868032,2.6838365,-6.3346725
913,2026-05-11 16:15:19.201988,2.2823892,0.7194932,1.1990334,2.3868032,2.6838365,-6.3346725
914,2026-05-11 16:15:19.204604,2.2823892,0.7194932,1.1990334,2.3868032,2.6838365,-6.3346725
915,2026-05-11 16:15:19.207296,2.2823892,0.7194932,1.1990334,2.3868032,2.6838365,-6.3346725
916,2026-05-11 16:15:19.209864,2.2823892,0.7194932,1.1990334,2.3868032,2.6838365,-6.3346725
917,2026-05-11 16:15:19.212666,2.2823892,0.7194932,1.1990334,2.3868032,2.6838365,-6.3346725
918,2026-05-11 16:15:19.215511,2.2823892,0.7194932,1.1990334,2.3868032,2.6838365,-6.3346725
919,2026-05-11 16:15:19.218515,2.2823892,0.7194932,1.1990334,2.3868032,2.6838365,-6.3346725
920,2026-05-11 16:15:19.221284,2.2823892,0.7194932,1.1990334,2.3868032,2.6838365,-6.3346725
921,2026-05-11 16:15:19.223888,2.2823892,0.7194932,1.1990334,2.3868032,2.6838365,-6.3346725
922,2026-05-11 16:15:19.226492,2.2823892,0.7194932,1.1990334,2.3868032,2.6838365,-6.3346725
923,2026-05-11 16:15:19.229263,2.2823892,0.7194932,1.1990334,2.3868032,2.6838365,-6.3346725
924,2026-05-11 16:15:19.232315,2.0701208,0.53283596,1.0179863,2.8816042,2.765387,-6.7378435
925,2026-05-11 16:15:19.235426,1.9587119,0.34416643,0.910419,2.8816042,2.765387,-6.7378435
926,2026-05-11 16:15:19.238023,1.9587119,0.34416643,0.910419,2.8816042,2.765387,-6.7378435
927,2026-05-11 16:15:19.240888,1.8224233,-0.009146876,0.85541576,3.0688343,2.7968466,-6.8552823
928,2026-05-11 16:15:19.243610,1.8224233,-0.009146876,0.85541576,3.2323935,2.930015,-6.938513
929,2026-05-11 16:15:19.246327,1.8224233,-0.009146876,0.85541576,3.2323935,2.930015,-6.938513
930,2026-05-11 16:15:19.249489,1.8224233,-0.009146876,0.85541576,3.2323935,2.930015,-6.938513
931,2026-05-11 16:15:19.252477,1.4998436,-0.47222266,0.7579101,3.637397,2.9678888,-6.91698
932,2026-05-11 16:15:19.255208,1.4998436,-0.47222266,0.7579101,3.637397,2.9678888,-6.91698
933,2026-05-11 16:15:19.257829,1.4998436,-0.47222266,0.7579101,3.637397,2.9678888,-6.91698
934,2026-05-11 16:15:19.260621,1.2181199,-0.8041323,0.6916257,4.065308,2.6667323,-6.615518
935,2026-05-11 16:15:19.263326,1.0859779,-1.0484759,0.68705225,4.065308,2.6667323,-6.615518
936,2026-05-11 16:15:19.266363,1.0859779,-1.0484759,0.68705225,4.065308,2.6667323,-6.615518
937,2026-05-11 16:15:19.269200,1.0859779,-1.0484759,0.68705225,4.065308,2.6667323,-6.615518
938,2026-05-11 16:15:19.272098,1.0859779,-1.0484759,0.68705225,4.603786,2.1024454,-6.1434717
939,2026-05-11 16:15:19.274823,0.9934116,-1.2601346,0.6919306,5.483279,1.210124,-5.626527
940,2026-05-11 16:15:19.277552,0.9934116,-1.2601346,0.6919306,5.483279,1.210124,-5.626527
941,2026-05-11 16:15:19.280200,0.9934116,-1.2601346,0.6919306,5.483279,1.210124,-5.626527
942,2026-05-11 16:15:19.283253,0.9934116,-1.2601346,0.6919306,5.483279,1.210124,-5.626527
943,2026-05-11 16:15:19.286058,0.9934116,-1.2601346,0.6919306,5.483279,1.210124,-5.626527
944,2026-05-11 16:15:19.288634,0.9934116,-1.2601346,0.6919306,5.483279,1.210124,-5.626527
945,2026-05-11 16:15:19.291425,0.9934116,-1.2601346,0.6919306,5.483279,1.210124,-5.626527
946,2026-05-11 16:15:19.294046,0.9934116,-1.2601346,0.6919306,5.483279,1.210124,-5.626527
947,2026-05-11 16:15:19.296681,0.9934116,-1.2601346,0.6919306,5.483279,1.210124,-5.626527
948,2026-05-11 16:15:19.299589,0.9934116,-1.2601346,0.6919306,5.483279,1.210124,-5.626527
949,2026-05-11 16:15:19.302285,0.9934116,-1.2601346,0.6919306,5.483279,1.210124,-5.626527
950,2026-05-11 16:15:19.304846,0.9934116,-1.2601346,0.6919306,5.483279,1.210124,-5.626527
951,2026-05-11 16:15:19.307401,0.9934116,-1.2601346,0.6919306,5.483279,1.210124,-5.626527
952,2026-05-11 16:15:19.310196,0.9934116,-1.2601346,0.6919306,5.483279,1.210124,-5.626527
953,2026-05-11 16:15:19.312908,0.9934116,-1.2601346,0.6919306,5.8465915,0.8872818,-5.4741163
954,2026-05-11 16:15:19.316058,0.9934116,-1.2601346,0.6919306,5.8465915,0.8872818,-5.4741163
955,2026-05-11 16:15:19.318904,0.9934116,-1.2601346,0.6919306,5.8465915,0.8872818,-5.4741163
956,2026-05-11 16:15:19.321619,0.9934116,-1.2601346,0.6919306,5.8465915,0.8872818,-5.4741163
957,2026-05-11 16:15:19.324363,1.0023146,-1.3490422,0.63772017,5.8465915,0.8872818,-5.4741163
958,2026-05-11 16:15:19.327074,1.0023146,-1.3490422,0.63772017,5.8465915,0.8872818,-5.4741163
959,2026-05-11 16:15:19.329669,1.0023146,-1.3490422,0.63772017,5.8465915,0.8872818,-5.4741163
960,2026-05-11 16:15:19.332646,1.0023146,-1.3490422,0.63772017,5.8465915,0.8872818,-5.4741163
961,2026-05-11 16:15:19.335375,1.0023146,-1.3490422,0.63772017,5.8465915,0.8872818,-5.4741163
962,2026-05-11 16:15:19.338121,1.0023146,-1.3490422,0.63772017,5.8465915,0.8872818,-5.4741163
963,2026-05-11 16:15:19.340814,1.0023146,-1.3490422,0.63772017,5.8465915,0.8872818,-5.4741163
964,2026-05-11 16:15:19.343649,1.0023146,-1.3490422,0.63772017,5.8465915,0.8872818,-5.4741163
965,2026-05-11 16:15:19.346245,1.0023146,-1.3490422,0.63772017,5.8465915,0.8872818,-5.4741163
966,2026-05-11 16:15:19.349382,1.0023146,-1.3490422,0.63772017,5.8465915,0.8872818,-5.4741163
967,2026-05-11 16:15:19.352390,1.0023146,-1.3490422,0.63772017,5.8465915,0.8872818,-5.4741163
968,2026-05-11 16:15:19.354962,1.0023146,-1.3490422,0.63772017,5.8465915,0.8872818,-5.4741163
969,2026-05-11 16:15:19.357648,1.0023146,-1.3490422,0.63772017,5.8465915,0.8872818,-5.4741163
970,2026-05-11 16:15:19.360236,1.0023146,-1.3490422,0.63772017,5.8465915,0.8872818,-5.4741163
971,2026-05-11 16:15:19.362889,1.0023146,-1.3490422,0.63772017,5.8465915,0.8872818,-5.4741163
972,2026-05-11 16:15:19.366130,0.9734714,-1.5477122,0.4578316,6.1026964,0.79152864,-5.4255524
973,2026-05-11 16:15:19.369054,0.9734714,-1.5477122,0.4578316,6.1026964,0.79152864,-5.4255524
974,2026-05-11 16:15:19.371689,0.9734714,-1.5477122,0.4578316,6.1026964,0.79152864,-5.4255524
975,2026-05-11 16:15:19.374482,0.9734714,-1.5477122,0.4578316,6.1026964,0.79152864,-5.4255524
976,2026-05-11 16:15:19.377280,0.7738866,-1.6541209,0.316116,6.1026964,0.79152864,-5.4255524
977,2026-05-11 16:15:19.379920,0.7738866,-1.6541209,0.316116,6.1026964,0.79152864,-5.4255524
978,2026-05-11 16:15:19.382721,0.7738866,-1.6541209,0.316116,6.1026964,0.79152864,-5.4255524
979,2026-05-11 16:15:19.385575,0.7738866,-1.6541209,0.316116,6.1026964,0.79152864,-5.4255524
980,2026-05-11 16:15:19.388272,0.7738866,-1.6541209,0.316116,6.1026964,0.79152864,-5.4255524
981,2026-05-11 16:15:19.391032,0.7738866,-1.6541209,0.316116,6.071848,0.8772025,-5.392871
982,2026-05-11 16:15:19.393761,0.7738866,-1.6541209,0.316116,6.071848,0.8772025,-5.392871
983,2026-05-11 16:15:19.396358,0.7738866,-1.6541209,0.316116,6.071848,0.8772025,-5.392871
984,2026-05-11 16:15:19.399513,0.7738866,-1.6541209,0.316116,6.071848,0.8772025,-5.392871
985,2026-05-11 16:15:19.402474,0.7738866,-1.6541209,0.316116,5.838497,0.82848597,-5.224425
986,2026-05-11 16:15:19.405149,0.40203565,-1.7083925,0.11390909,5.838497,0.82848597,-5.224425
987,2026-05-11 16:15:19.407731,0.40203565,-1.7083925,0.11390909,5.838497,0.82848597,-5.224425
988,2026-05-11 16:15:19.410452,0.40203565,-1.7083925,0.11390909,5.838497,0.82848597,-5.224425
989,2026-05-11 16:15:19.413119,0.04762473,-1.7260764,-0.024391668,5.327356,0.70524395,-4.8301115
990,2026-05-11 16:15:19.416212,0.04762473,-1.7260764,-0.024391668,5.327356,0.70524395,-4.8301115
991,2026-05-11 16:15:19.418877,0.04762473,-1.7260764,-0.024391668,5.327356,0.70524395,-4.8301115
992,2026-05-11 16:15:19.421669,0.04762473,-1.7260764,-0.024391668,4.7719264,0.6797403,-4.3040037
993,2026-05-11 16:15:19.424267,0.04762473,-1.7260764,-0.024391668,4.7719264,0.6797403,-4.3040037
994,2026-05-11 16:15:19.426822,0.04762473,-1.7260764,-0.024391668,4.7719264,0.6797403,-4.3040037
995,2026-05-11 16:15:19.429607,0.04762473,-1.7260764,-0.024391668,4.7719264,0.6797403,-4.3040037
996,2026-05-11 16:15:19.433025,-0.3386783,-1.7145512,-0.107201375,4.7719264,0.6797403,-4.3040037
997,2026-05-11 16:15:19.436069,-0.3386783,-1.7145512,-0.107201375,4.7719264,0.6797403,-4.3040037
998,2026-05-11 16:15:19.438716,-0.3386783,-1.7145512,-0.107201375,4.7719264,0.6797403,-4.3040037
999,2026-05-11 16:15:19.441490,-0.3386783,-1.7145512,-0.107201375,4.7719264,0.6797403,-4.3040037
1000,2026-05-11 16:15:19.444224,-0.3386783,-1.7145512,-0.107201375,4.7719264,0.6797403,-4.3040037
1001,2026-05-11 16:15:19.447060,-0.60259616,-1.6568649,-0.14214244,4.7719264,0.6797403,-4.3040037
1002,2026-05-11 16:15:19.450171,-0.60259616,-1.6568649,-0.14214244,4.7719264,0.6797403,-4.3040037
1003,2026-05-11 16:15:19.453048,-0.60259616,-1.6568649,-0.14214244,4.7719264,0.6797403,-4.3040037
1004,2026-05-11 16:15:19.455736,-0.60259616,-1.6568649,-0.14214244,4.7719264,0.6797403,-4.3040037
1005,2026-05-11 16:15:19.458335,-0.60259616,-1.6568649,-0.14214244,4.7719264,0.6797403,-4.3040037
1006,2026-05-11 16:15:19.461208,-0.60259616,-1.6568649,-0.14214244,4.7719264,0.6797403,-4.3040037
1007,2026-05-11 16:15:19.463915,-0.60259616,-1.6568649,-0.14214244,4.7719264,0.6797403,-4.3040037
1008,2026-05-11 16:15:19.467024,-0.60259616,-1.6568649,-0.14214244,3.8487566,0.8390234,-3.3052392
1009,2026-05-11 16:15:19.469870,-0.60259616,-1.6568649,-0.14214244,3.8487566,0.8390234,-3.3052392
1010,2026-05-11 16:15:19.472535,-0.60259616,-1.6568649,-0.14214244,3.8487566,0.8390234,-3.3052392
1011,2026-05-11 16:15:19.475131,-0.60259616,-1.6568649,-0.14214244,3.8487566,0.8390234,-3.3052392
1012,2026-05-11 16:15:19.477837,-0.60259616,-1.6568649,-0.14214244,3.8487566,0.8390234,-3.3052392
1013,2026-05-11 16:15:19.480393,-0.60259616,-1.6568649,-0.14214244,3.8487566,0.8390234,-3.3052392
1014,2026-05-11 16:15:19.483249,-0.60259616,-1.6568649,-0.14214244,3.8487566,0.8390234,-3.3052392
1015,2026-05-11 16:15:19.486069,-0.60259616,-1.6568649,-0.14214244,3.8487566,0.8390234,-3.3052392
1016,2026-05-11 16:15:19.488660,-0.60259616,-1.6568649,-0.14214244,3.8487566,0.8390234,-3.3052392
1017,2026-05-11 16:15:19.491284,-0.60259616,-1.6568649,-0.14214244,3.8487566,0.8390234,-3.3052392
1018,2026-05-11 16:15:19.494086,-0.60259616,-1.6568649,-0.14214244,3.8487566,0.8390234,-3.3052392
1019,2026-05-11 16:15:19.496774,-0.60259616,-1.6568649,-0.14214244,3.8487566,0.8390234,-3.3052392
1020,2026-05-11 16:15:19.499778,-0.60259616,-1.6568649,-0.14214244,3.8487566,0.8390234,-3.3052392
1021,2026-05-11 16:15:19.502460,-0.60259616,-1.6568649,-0.14214244,3.8487566,0.8390234,-3.3052392
1022,2026-05-11 16:15:19.505082,-0.60259616,-1.6568649,-0.14214244,3.8487566,0.8390234,-3.3052392
1023,2026-05-11 16:15:19.507839,-0.70851696,-1.601191,-0.1575092,3.8487566,0.8390234,-3.3052392
1024,2026-05-11 16:15:19.510562,-0.70851696,-1.601191,-0.1575092,3.8487566,0.8390234,-3.3052392
1025,2026-05-11 16:15:19.513175,-0.70851696,-1.601191,-0.1575092,3.8487566,0.8390234,-3.3052392
1026,2026-05-11 16:15:19.516123,-0.70851696,-1.601191,-0.1575092,3.8487566,0.8390234,-3.3052392
1027,2026-05-11 16:15:19.519639,-0.70851696,-1.601191,-0.1575092,3.524998,0.94882643,-2.9407053
1028,2026-05-11 16:15:19.522643,-0.77632576,-1.3442857,-0.21306121,2.3200662,1.5178474,-1.6136005
1029,2026-05-11 16:15:19.525436,-0.77632576,-1.3442857,-0.21306121,2.3200662,1.5178474,-1.6136005
1030,2026-05-11 16:15:19.528088,-0.77632576,-1.3442857,-0.21306121,2.3200662,1.5178474,-1.6136005
1031,2026-05-11 16:15:19.530829,-0.77632576,-1.3442857,-0.21306121,2.3200662,1.5178474,-1.6136005
1032,2026-05-11 16:15:19.534145,-0.77632576,-1.3442857,-0.21306121,2.3200662,1.5178474,-1.6136005
1033,2026-05-11 16:15:19.537045,-0.77632576,-1.3442857,-0.21306121,2.3200662,1.5178474,-1.6136005
1034,2026-05-11 16:15:19.539765,-0.77632576,-1.3442857,-0.21306121,1.5804611,1.9457586,-0.9068295
1035,2026-05-11 16:15:19.542339,-0.77632576,-1.3442857,-0.21306121,1.5804611,1.9457586,-0.9068295
1036,2026-05-11 16:15:19.545158,-0.77632576,-1.3442857,-0.21306121,1.5804611,1.9457586,-0.9068295
1037,2026-05-11 16:15:19.547841,-0.77632576,-1.3442857,-0.21306121,1.5804611,1.9457586,-0.9068295
1038,2026-05-11 16:15:19.550947,-0.77632576,-1.3442857,-0.21306121,1.5804611,1.9457586,-0.9068295
1039,2026-05-11 16:15:19.553642,-0.77632576,-1.3442857,-0.21306121,1.5804611,1.9457586,-0.9068295
1040,2026-05-11 16:15:19.556390,-0.77632576,-1.3442857,-0.21306121,1.5804611,1.9457586,-0.9068295
1041,2026-05-11 16:15:19.558986,-0.77632576,-1.3442857,-0.21306121,1.5804611,1.9457586,-0.9068295
1042,2026-05-11 16:15:19.561683,-0.83974415,-1.2659885,-0.23306239,0.6356053,2.526844,-0.060170226
1043,2026-05-11 16:15:19.564265,-0.83974415,-1.2659885,-0.23306239,0.6356053,2.526844,-0.060170226
1044,2026-05-11 16:15:19.567309,-0.83974415,-1.2659885,-0.23306239,0.6356053,2.526844,-0.060170226
1045,2026-05-11 16:15:19.570092,-0.83974415,-1.2659885,-0.23306239,0.6356053,2.526844,-0.060170226
1046,2026-05-11 16:15:19.572688,-0.83974415,-1.2659885,-0.23306239,0.6356053,2.526844,-0.060170226
1047,2026-05-11 16:15:19.575279,-0.83974415,-1.2659885,-0.23306239,0.6356053,2.526844,-0.060170226
1048,2026-05-11 16:15:19.577976,-0.83974415,-1.2659885,-0.23306239,0.6356053,2.526844,-0.060170226
1049,2026-05-11 16:15:19.580842,-0.8617576,-1.1818982,-0.24757542,-0.39064834,2.85946,1.0859656
1050,2026-05-11 16:15:19.583939,-0.8617576,-1.1818982,-0.24757542,-0.39064834,2.85946,1.0859656
1051,2026-05-11 16:15:19.586693,-0.8178526,-1.1407983,-0.25019753,-0.39064834,2.85946,1.0859656
1052,2026-05-11 16:15:19.589424,-0.8178526,-1.1407983,-0.25019753,-0.39064834,2.85946,1.0859656
1053,2026-05-11 16:15:19.591998,-0.8178526,-1.1407983,-0.25019753,-0.39064834,2.85946,1.0859656
1054,2026-05-11 16:15:19.594730,-0.8178526,-1.1407983,-0.25019753,-0.39064834,2.85946,1.0859656
1055,2026-05-11 16:15:19.597318,-0.8178526,-1.1407983,-0.25019753,-0.39064834,2.85946,1.0859656
1056,2026-05-11 16:15:19.600507,-0.8178526,-1.1407983,-0.25019753,-0.39064834,2.85946,1.0859656
1057,2026-05-11 16:15:19.603328,-0.8178526,-1.1407983,-0.25019753,-0.39064834,2.85946,1.0859656
1058,2026-05-11 16:15:19.605954,-0.8178526,-1.1407983,-0.25019753,-0.39064834,2.85946,1.0859656
1059,2026-05-11 16:15:19.608604,-0.8178526,-1.1407983,-0.25019753,-0.39064834,2.85946,1.0859656
1060,2026-05-11 16:15:19.611381,-0.8178526,-1.1407983,-0.25019753,-0.39064834,2.85946,1.0859656
1061,2026-05-11 16:15:19.614011,-0.8178526,-1.1407983,-0.25019753,-0.39064834,2.85946,1.0859656
1062,2026-05-11 16:15:19.617498,-0.8178526,-1.1407983,-0.25019753,-0.7086037,2.8643472,1.4702
1063,2026-05-11 16:15:19.620496,-0.8178526,-1.1407983,-0.25019753,-0.7086037,2.8643472,1.4702
1064,2026-05-11 16:15:19.623138,-0.8178526,-1.1407983,-0.25019753,-0.7086037,2.8643472,1.4702
1065,2026-05-11 16:15:19.625806,-0.8178526,-1.1407983,-0.25019753,-0.7086037,2.8643472,1.4702
1066,2026-05-11 16:15:19.628565,-0.8178526,-1.1407983,-0.25019753,-0.7086037,2.8643472,1.4702
1067,2026-05-11 16:15:19.631571,-0.5728993,-1.1156749,-0.24037987,-1.6308575,2.7908907,2.5705209
1068,2026-05-11 16:15:19.635117,-0.5728993,-1.1156749,-0.24037987,-1.6308575,2.7908907,2.5705209
1069,2026-05-11 16:15:19.638089,-0.5728993,-1.1156749,-0.24037987,-1.6308575,2.7908907,2.5705209
1070,2026-05-11 16:15:19.640741,-0.5728993,-1.1156749,-0.24037987,-1.6308575,2.7908907,2.5705209
1071,2026-05-11 16:15:19.643355,-0.5728993,-1.1156749,-0.24037987,-1.6308575,2.7908907,2.5705209
1072,2026-05-11 16:15:19.646130,-0.5728993,-1.1156749,-0.24037987,-1.6308575,2.7908907,2.5705209
1073,2026-05-11 16:15:19.649259,-0.5728993,-1.1156749,-0.24037987,-1.6308575,2.7908907,2.5705209
1074,2026-05-11 16:15:19.652277,-0.5728993,-1.1156749,-0.24037987,-1.6308575,2.7908907,2.5705209
1075,2026-05-11 16:15:19.655105,-0.5728993,-1.1156749,-0.24037987,-2.6995661,2.8394544,3.6344955
1076,2026-05-11 16:15:19.657761,-0.23684308,-1.1032351,-0.17379062,-2.6995661,2.8394544,3.6344955
1077,2026-05-11 16:15:19.660366,-0.23684308,-1.1032351,-0.17379062,-2.6995661,2.8394544,3.6344955
1078,2026-05-11 16:15:19.663135,-0.0140252095,-1.0972592,-0.099822894,-2.6995661,2.8394544,3.6344955
1079,2026-05-11 16:15:19.666314,-0.0140252095,-1.0972592,-0.099822894,-2.6995661,2.8394544,3.6344955
1080,2026-05-11 16:15:19.669166,-0.0140252095,-1.0972592,-0.099822894,-2.6995661,2.8394544,3.6344955
1081,2026-05-11 16:15:19.671883,-0.0140252095,-1.0972592,-0.099822894,-2.6995661,2.8394544,3.6344955
1082,2026-05-11 16:15:19.674716,-0.0140252095,-1.0972592,-0.099822894,-3.0839531,2.8577802,4.003
1083,2026-05-11 16:15:19.677458,0.16153382,-1.1068939,-0.039758418,-3.5984545,2.806162,4.5459065
1084,2026-05-11 16:15:19.680188,0.16153382,-1.1068939,-0.039758418,-3.5984545,2.806162,4.5459065
1085,2026-05-11 16:15:19.683365,0.16153382,-1.1068939,-0.039758418,-3.5984545,2.806162,4.5459065
1086,2026-05-11 16:15:19.686112,0.16153382,-1.1068939,-0.039758418,-3.5984545,2.806162,4.5459065
1087,2026-05-11 16:15:19.688791,0.16153382,-1.1068939,-0.039758418,-3.5984545,2.806162,4.5459065
1088,2026-05-11 16:15:19.691491,0.16153382,-1.1068939,-0.039758418,-3.5984545,2.806162,4.5459065
1089,2026-05-11 16:15:19.694183,0.16153382,-1.1068939,-0.039758418,-3.5984545,2.806162,4.5459065
1090,2026-05-11 16:15:19.696841,0.16153382,-1.1068939,-0.039758418,-3.5984545,2.806162,4.5459065
1091,2026-05-11 16:15:19.699843,0.16153382,-1.1068939,-0.039758418,-3.5984545,2.806162,4.5459065
1092,2026-05-11 16:15:19.702713,0.16153382,-1.1068939,-0.039758418,-3.8282926,2.7183504,4.8533244
1093,2026-05-11 16:15:19.705376,0.2920902,-1.1226875,0.046405144,-3.8282926,2.7183504,4.8533244
1094,2026-05-11 16:15:19.707987,0.2920902,-1.1226875,0.046405144,-3.8282926,2.7183504,4.8533244
1095,2026-05-11 16:15:19.710805,0.2920902,-1.1226875,0.046405144,-3.8282926,2.7183504,4.8533244
1096,2026-05-11 16:15:19.713489,0.2920902,-1.1226875,0.046405144,-3.8282926,2.7183504,4.8533244
1097,2026-05-11 16:15:19.716460,0.2920902,-1.1226875,0.046405144,-3.8282926,2.7183504,4.8533244
1098,2026-05-11 16:15:19.719244,0.2920902,-1.1226875,0.046405144,-3.8282926,2.7183504,4.8533244
1099,2026-05-11 16:15:19.721877,0.2920902,-1.1226875,0.046405144,-3.8282926,2.7183504,4.8533244
1100,2026-05-11 16:15:19.724448,0.2920902,-1.1226875,0.046405144,-3.8282926,2.7183504,4.8533244
1101,2026-05-11 16:15:19.727206,0.2920902,-1.1226875,0.046405144,-3.8282926,2.7183504,4.8533244
1102,2026-05-11 16:15:19.729993,0.43520832,-1.1404933,0.19879209,-3.9881864,1.8874209,6.049551
1103,2026-05-11 16:15:19.733076,0.43520832,-1.1404933,0.19879209,-3.9881864,1.8874209,6.049551
1104,2026-05-11 16:15:19.735818,0.43520832,-1.1404933,0.19879209,-3.9881864,1.8874209,6.049551
1105,2026-05-11 16:15:19.738698,0.43520832,-1.1404933,0.19879209,-3.9881864,1.8874209,6.049551
1106,2026-05-11 16:15:19.741350,0.5535689,-1.1716537,0.30873755,-3.9881864,1.8874209,6.049551
1107,2026-05-11 16:15:19.744073,0.5535689,-1.1716537,0.30873755,-3.9881864,1.8874209,6.049551
1108,2026-05-11 16:15:19.746672,0.5535689,-1.1716537,0.30873755,-3.9881864,1.8874209,6.049551
1109,2026-05-11 16:15:19.749903,0.5535689,-1.1716537,0.30873755,-3.9881864,1.8874209,6.049551
1110,2026-05-11 16:15:19.752619,0.5535689,-1.1716537,0.30873755,-3.9881864,1.8874209,6.049551
1111,2026-05-11 16:15:19.755448,0.5535689,-1.1716537,0.30873755,-3.9881864,1.8874209,6.049551
1112,2026-05-11 16:15:19.758197,0.7007726,-1.1614093,0.38386387,-3.8489091,1.4544702,6.6740084
1113,2026-05-11 16:15:19.760916,0.7007726,-1.1614093,0.38386387,-3.8489091,1.4544702,6.6740084
1114,2026-05-11 16:15:19.763504,0.7007726,-1.1614093,0.38386387,-3.8489091,1.4544702,6.6740084
1115,2026-05-11 16:15:19.766587,0.7007726,-1.1614093,0.38386387,-3.8489091,1.4544702,6.6740084
1116,2026-05-11 16:15:19.769409,0.7007726,-1.1614093,0.38386387,-3.8489091,1.4544702,6.6740084
1117,2026-05-11 16:15:19.772013,0.7007726,-1.1614093,0.38386387,-3.8489091,1.4544702,6.6740084
1118,2026-05-11 16:15:19.774591,0.7007726,-1.1614093,0.38386387,-3.8489091,1.4544702,6.6740084
1119,2026-05-11 16:15:19.777378,0.9860331,-1.132993,0.45856333,-3.6264014,1.0569496,7.202101
1120,2026-05-11 16:15:19.780017,1.2367185,-1.0734773,0.4981998,-3.4631479,0.8562804,7.4403386
1121,2026-05-11 16:15:19.783025,1.2367185,-1.0734773,0.4981998,-3.4631479,0.8562804,7.4403386
1122,2026-05-11 16:15:19.785788,1.2367185,-1.0734773,0.4981998,-3.4631479,0.8562804,7.4403386
1123,2026-05-11 16:15:19.788427,1.2367185,-1.0734773,0.4981998,-3.4631479,0.8562804,7.4403386
1124,2026-05-11 16:15:19.791140,1.2367185,-1.0734773,0.4981998,-3.4631479,0.8562804,7.4403386
1125,2026-05-11 16:15:19.793864,1.2367185,-1.0734773,0.4981998,-3.4631479,0.8562804,7.4403386
1126,2026-05-11 16:15:19.796695,1.2367185,-1.0734773,0.4981998,-3.4631479,0.8562804,7.4403386
1127,2026-05-11 16:15:19.799698,1.2367185,-1.0734773,0.4981998,-3.4631479,0.8562804,7.4403386
1128,2026-05-11 16:15:19.802512,1.2367185,-1.0734773,0.4981998,-3.4631479,0.8562804,7.4403386
1129,2026-05-11 16:15:19.805121,1.2367185,-1.0734773,0.4981998,-3.4631479,0.8562804,7.4403386
1130,2026-05-11 16:15:19.807867,1.2367185,-1.0734773,0.4981998,-3.4631479,0.8562804,7.4403386
1131,2026-05-11 16:15:19.810491,1.2367185,-1.0734773,0.4981998,-3.4631479,0.8562804,7.4403386
1132,2026-05-11 16:15:19.813049,1.2367185,-1.0734773,0.4981998,-3.4631479,0.8562804,7.4403386
1133,2026-05-11 16:15:19.818423,1.2367185,-1.0734773,0.4981998,-3.4631479,0.8562804,7.4403386
1134,2026-05-11 16:15:19.843010,1.618753,-0.89322287,0.4953338,-3.090062,0.35643986,7.7509637
1135,2026-05-11 16:15:19.846412,1.618753,-0.89322287,0.4953338,-3.090062,0.35643986,7.7509637
1136,2026-05-11 16:15:19.855927,1.618753,-0.89322287,0.4953338,-3.090062,0.35643986,7.7509637
1137,2026-05-11 16:15:19.858739,1.618753,-0.89322287,0.4953338,-3.090062,0.35643986,7.7509637
1138,2026-05-11 16:15:19.861332,1.618753,-0.89322287,0.4953338,-3.090062,0.35643986,7.7509637
1139,2026-05-11 16:15:19.864150,1.618753,-0.89322287,0.4953338,-3.090062,0.35643986,7.7509637
1140,2026-05-11 16:15:19.867208,1.618753,-0.89322287,0.4953338,-3.090062,0.35643986,7.7509637
1141,2026-05-11 16:15:19.870035,1.618753,-0.89322287,0.4953338,-3.090062,0.35643986,7.7509637
1142,2026-05-11 16:15:19.872770,1.618753,-0.89322287,0.4953338,-3.090062,0.35643986,7.7509637
1143,2026-05-11 16:15:19.875513,1.618753,-0.89322287,0.4953338,-3.090062,0.35643986,7.7509637
1144,2026-05-11 16:15:19.878140,1.618753,-0.89322287,0.4953338,-3.090062,0.35643986,7.7509637
1145,2026-05-11 16:15:19.880922,1.618753,-0.89322287,0.4953338,-2.78692,-0.09789115,7.783645
1146,2026-05-11 16:15:19.884007,1.618753,-0.89322287,0.4953338,-2.78692,-0.09789115,7.783645
1147,2026-05-11 16:15:19.886762,1.618753,-0.89322287,0.4953338,-2.78692,-0.09789115,7.783645
1148,2026-05-11 16:15:19.889499,1.618753,-0.89322287,0.4953338,-2.78692,-0.09789115,7.783645
1149,2026-05-11 16:15:19.892230,1.618753,-0.89322287,0.4953338,-2.78692,-0.09789115,7.783645
1150,2026-05-11 16:15:19.894910,1.618753,-0.89322287,0.4953338,-2.78692,-0.09789115,7.783645
1151,2026-05-11 16:15:19.897717,1.618753,-0.89322287,0.4953338,-2.78692,-0.09789115,7.783645
1152,2026-05-11 16:15:19.900755,1.618753,-0.89322287,0.4953338,-2.78692,-0.09789115,7.783645
1153,2026-05-11 16:15:19.903496,1.618753,-0.89322287,0.4953338,-2.78692,-0.09789115,7.783645
1154,2026-05-11 16:15:19.906101,1.618753,-0.89322287,0.4953338,-2.78692,-0.09789115,7.783645
1155,2026-05-11 16:15:19.908856,1.618753,-0.89322287,0.4953338,-2.78692,-0.09789115,7.783645
1156,2026-05-11 16:15:19.911576,2.0131662,-0.4496604,0.5399705,-2.78692,-0.09789115,7.783645
1157,2026-05-11 16:15:19.914206,2.0131662,-0.4496604,0.5399705,-2.78692,-0.09789115,7.783645
1158,2026-05-11 16:15:19.917410,2.0131662,-0.4496604,0.5399705,-2.78692,-0.09789115,7.783645
1159,2026-05-11 16:15:19.920174,2.5779555,0.020854875,0.7625445,-2.3263276,-0.63163465,7.6309285
1160,2026-05-11 16:15:19.922928,2.5779555,0.020854875,0.7625445,-2.3263276,-0.63163465,7.6309285
1161,2026-05-11 16:15:19.925499,2.5779555,0.020854875,0.7625445,-2.3263276,-0.63163465,7.6309285
1162,2026-05-11 16:15:19.928189,2.5779555,0.020854875,0.7625445,-2.3263276,-0.63163465,7.6309285
1163,2026-05-11 16:15:19.930882,2.5779555,0.020854875,0.7625445,-2.3263276,-0.63163465,7.6309285
1164,2026-05-11 16:15:19.933921,2.5779555,0.020854875,0.7625445,-2.3263276,-0.63163465,7.6309285
1165,2026-05-11 16:15:19.936552,2.5779555,0.020854875,0.7625445,-2.3263276,-0.63163465,7.6309285
1166,2026-05-11 16:15:19.939103,2.5779555,0.020854875,0.7625445,-2.3263276,-0.63163465,7.6309285
1167,2026-05-11 16:15:19.941730,2.5779555,0.020854875,0.7625445,-2.3263276,-0.63163465,7.6309285
1168,2026-05-11 16:15:19.944228,2.5779555,0.020854875,0.7625445,-2.3263276,-0.63163465,7.6309285
1169,2026-05-11 16:15:19.946918,2.5779555,0.020854875,0.7625445,-2.3263276,-0.63163465,7.6309285
1170,2026-05-11 16:15:19.950179,2.5779555,0.020854875,0.7625445,-2.3263276,-0.63163465,7.6309285
1171,2026-05-11 16:15:19.952911,2.5779555,0.020854875,0.7625445,-2.3263276,-0.63163465,7.6309285
1172,2026-05-11 16:15:19.955701,3.0097487,0.41996354,0.922127,-2.3263276,-0.63163465,7.6309285
1173,2026-05-11 16:15:19.958333,3.0097487,0.41996354,0.922127,-2.3263276,-0.63163465,7.6309285
1174,2026-05-11 16:15:19.960912,3.0097487,0.41996354,0.922127,-2.3263276,-0.63163465,7.6309285
1175,2026-05-11 16:15:19.963634,3.0097487,0.41996354,0.922127,-2.3263276,-0.63163465,7.6309285
1176,2026-05-11 16:15:19.966571,3.0097487,0.41996354,0.922127,-2.3263276,-0.63163465,7.6309285
1177,2026-05-11 16:15:19.969357,3.0097487,0.41996354,0.922127,-2.3263276,-0.63163465,7.6309285
1178,2026-05-11 16:15:19.971989,3.0097487,0.41996354,0.922127,-2.3263276,-0.63163465,7.6309285
1179,2026-05-11 16:15:19.974570,3.0097487,0.41996354,0.922127,-2.3263276,-0.63163465,7.6309285
1180,2026-05-11 16:15:19.977378,3.0097487,0.41996354,0.922127,-2.3263276,-0.63163465,7.6309285
1181,2026-05-11 16:15:19.979958,3.0097487,0.41996354,0.922127,-2.3263276,-0.63163465,7.6309285
1182,2026-05-11 16:15:19.983019,3.0097487,0.41996354,0.922127,-2.3263276,-0.63163465,7.6309285
1183,2026-05-11 16:15:19.985800,3.0097487,0.41996354,0.922127,-2.3263276,-0.63163465,7.6309285
1184,2026-05-11 16:15:19.988529,3.0097487,0.41996354,0.922127,-2.3263276,-0.63163465,7.6309285
1185,2026-05-11 16:15:19.991274,3.0097487,0.41996354,0.922127,-2.3263276,-0.63163465,7.6309285
1186,2026-05-11 16:15:19.993881,3.0097487,0.41996354,0.922127,-2.3263276,-0.63163465,7.6309285
1187,2026-05-11 16:15:19.996556,3.0097487,0.41996354,0.922127,-2.3263276,-0.63163465,7.6309285
1188,2026-05-11 16:15:19.999606,3.0097487,0.41996354,0.922127,-1.6566665,-0.90026265,7.0883274
1189,2026-05-11 16:15:20.002561,3.0097487,0.41996354,0.922127,-1.6566665,-0.90026265,7.0883274
1190,2026-05-11 16:15:20.005192,3.0097487,0.41996354,0.922127,-1.6566665,-0.90026265,7.0883274
1191,2026-05-11 16:15:20.008063,3.0097487,0.41996354,0.922127,-1.6566665,-0.90026265,7.0883274
1192,2026-05-11 16:15:20.010818,3.0097487,0.41996354,0.922127,-1.6566665,-0.90026265,7.0883274
1193,2026-05-11 16:15:20.013486,3.0097487,0.41996354,0.922127,-0.88300574,-1.0155635,6.279542
1194,2026-05-11 16:15:20.016516,3.1398172,0.78138703,0.94164026,-0.88300574,-1.0155635,6.279542
1195,2026-05-11 16:15:20.019304,3.1398172,0.78138703,0.94164026,-0.88300574,-1.0155635,6.279542
1196,2026-05-11 16:15:20.021891,3.1398172,0.78138703,0.94164026,-0.88300574,-1.0155635,6.279542
1197,2026-05-11 16:15:20.024653,3.1398172,0.78138703,0.94164026,-0.88300574,-1.0155635,6.279542
1198,2026-05-11 16:15:20.027370,3.1398172,0.78138703,0.94164026,-0.88300574,-1.0155635,6.279542
1199,2026-05-11 16:15:20.029962,3.1398172,0.78138703,0.94164026,-0.88300574,-1.0155635,6.279542
1200,2026-05-11 16:15:20.033018,3.1398172,0.78138703,0.94164026,-0.88300574,-1.0155635,6.279542
1201,2026-05-11 16:15:20.035745,3.1398172,0.78138703,0.94164026,-0.88300574,-1.0155635,6.279542
1202,2026-05-11 16:15:20.038340,3.1398172,0.78138703,0.94164026,-0.88300574,-1.0155635,6.279542
1203,2026-05-11 16:15:20.041075,3.1398172,0.78138703,0.94164026,-0.88300574,-1.0155635,6.279542
1204,2026-05-11 16:15:20.043657,3.1398172,0.78138703,0.94164026,-0.88300574,-1.0155635,6.279542
1205,2026-05-11 16:15:20.046352,3.1398172,0.78138703,0.94164026,-0.88300574,-1.0155635,6.279542
1206,2026-05-11 16:15:20.049443,3.1398172,0.78138703,0.94164026,-0.88300574,-1.0155635,6.279542
1207,2026-05-11 16:15:20.052535,3.1398172,0.78138703,0.94164026,-0.88300574,-1.0155635,6.279542
1208,2026-05-11 16:15:20.055260,3.1398172,0.78138703,0.94164026,-0.88300574,-1.0155635,6.279542
1209,2026-05-11 16:15:20.057963,3.1398172,0.78138703,0.94164026,-0.88300574,-1.0155635,6.279542
1210,2026-05-11 16:15:20.060689,3.1398172,0.78138703,0.94164026,-0.88300574,-1.0155635,6.279542
1211,2026-05-11 16:15:20.063328,3.1398172,0.78138703,0.94164026,-0.88300574,-1.0155635,6.279542
1212,2026-05-11 16:15:20.066359,3.1398172,0.78138703,0.94164026,-0.88300574,-1.0155635,6.279542
1213,2026-05-11 16:15:20.069245,3.1398172,0.78138703,0.94164026,-0.88300574,-1.0155635,6.279542
1214,2026-05-11 16:15:20.071842,3.1398172,0.78138703,0.94164026,-0.88300574,-1.0155635,6.279542
1215,2026-05-11 16:15:20.074428,3.1398172,0.78138703,0.94164026,-0.88300574,-1.0155635,6.279542
1216,2026-05-11 16:15:20.077187,3.1398172,0.78138703,0.94164026,-0.88300574,-1.0155635,6.279542
1217,2026-05-11 16:15:20.079827,3.1398172,0.78138703,0.94164026,-0.88300574,-1.0155635,6.279542
1218,2026-05-11 16:15:20.082936,3.1398172,0.78138703,0.94164026,-0.88300574,-1.0155635,6.279542
1219,2026-05-11 16:15:20.085634,3.1398172,0.78138703,0.94164026,-0.88300574,-1.0155635,6.279542
1220,2026-05-11 16:15:20.088431,3.1695142,1.1997042,0.87712437,-0.88300574,-1.0155635,6.279542
1221,2026-05-11 16:15:20.091025,3.1695142,1.1997042,0.87712437,-0.88300574,-1.0155635,6.279542
1222,2026-05-11 16:15:20.093675,3.1695142,1.1997042,0.87712437,-0.88300574,-1.0155635,6.279542
1223,2026-05-11 16:15:20.096234,3.1695142,1.1997042,0.87712437,-0.88300574,-1.0155635,6.279542
1224,2026-05-11 16:15:20.099137,3.1653066,1.592105,0.69851637,0.032986723,-0.5900958,5.343849
1225,2026-05-11 16:15:20.102262,3.1653066,1.592105,0.69851637,0.032986723,-0.5900958,5.343849
1226,2026-05-11 16:15:20.104889,3.1653066,1.592105,0.69851637,0.032986723,-0.5900958,5.343849
1227,2026-05-11 16:15:20.107616,3.1653066,1.592105,0.69851637,0.7405214,0.29245174,4.1395283
1228,2026-05-11 16:15:20.110239,3.1653066,1.592105,0.69851637,0.7405214,0.29245174,4.1395283
1229,2026-05-11 16:15:20.112852,3.1653066,1.592105,0.69851637,0.7405214,0.29245174,4.1395283
1230,2026-05-11 16:15:20.115741,3.1653066,1.592105,0.69851637,0.7405214,0.29245174,4.1395283
1231,2026-05-11 16:15:20.118928,3.1653066,1.592105,0.69851637,0.7405214,0.29245174,4.1395283
1232,2026-05-11 16:15:20.121682,3.1653066,1.592105,0.69851637,0.7405214,0.29245174,4.1395283
1233,2026-05-11 16:15:20.124434,3.1653066,1.592105,0.69851637,0.7405214,0.29245174,4.1395283
1234,2026-05-11 16:15:20.127130,2.8757775,1.8202282,0.4974071,0.89659745,0.8503244,3.2898147
1235,2026-05-11 16:15:20.129943,2.8757775,1.8202282,0.4974071,0.89659745,0.8503244,3.2898147
1236,2026-05-11 16:15:20.133088,2.5426486,1.9426134,0.42063433,0.89659745,0.8503244,3.2898147
1237,2026-05-11 16:15:20.136029,2.5426486,1.9426134,0.42063433,0.89659745,0.8503244,3.2898147
1238,2026-05-11 16:15:20.138674,2.5426486,1.9426134,0.42063433,0.89659745,0.8503244,3.2898147
1239,2026-05-11 16:15:20.141245,2.5426486,1.9426134,0.42063433,0.89659745,0.8503244,3.2898147
1240,2026-05-11 16:15:20.143844,2.5426486,1.9426134,0.42063433,0.89659745,0.8503244,3.2898147
1241,2026-05-11 16:15:20.146402,2.5426486,1.9426134,0.42063433,0.89659745,0.8503244,3.2898147
1242,2026-05-11 16:15:20.149368,2.5426486,1.9426134,0.42063433,0.89659745,0.8503244,3.2898147
1243,2026-05-11 16:15:20.152147,2.5426486,1.9426134,0.42063433,0.89659745,0.8503244,3.2898147
1244,2026-05-11 16:15:20.154749,2.5426486,1.9426134,0.42063433,0.89659745,0.8503244,3.2898147
1245,2026-05-11 16:15:20.157397,2.5426486,1.9426134,0.42063433,0.89659745,0.8503244,3.2898147
1246,2026-05-11 16:15:20.159966,2.5426486,1.9426134,0.42063433,0.89659745,0.8503244,3.2898147
1247,2026-05-11 16:15:20.162633,2.5426486,1.9426134,0.42063433,0.89659745,0.8503244,3.2898147
1248,2026-05-11 16:15:20.165201,2.5426486,1.9426134,0.42063433,0.89659745,0.8503244,3.2898147
1249,2026-05-11 16:15:20.168416,2.5426486,1.9426134,0.42063433,0.89659745,0.8503244,3.2898147
1250,2026-05-11 16:15:20.171260,2.5426486,1.9426134,0.42063433,0.89659745,0.8503244,3.2898147
1251,2026-05-11 16:15:20.174045,2.5426486,1.9426134,0.42063433,0.89568114,1.3281738,2.5862508
1252,2026-05-11 16:15:20.176811,2.5426486,1.9426134,0.42063433,0.89568114,1.3281738,2.5862508
1253,2026-05-11 16:15:20.179476,2.5426486,1.9426134,0.42063433,0.89568114,1.3281738,2.5862508
1254,2026-05-11 16:15:20.182493,2.5426486,1.9426134,0.42063433,0.89568114,1.3281738,2.5862508
1255,2026-05-11 16:15:20.185579,2.5426486,1.9426134,0.42063433,0.89568114,1.3281738,2.5862508
1256,2026-05-11 16:15:20.188357,2.5426486,1.9426134,0.42063433,0.89568114,1.3281738,2.5862508
1257,2026-05-11 16:15:20.191060,2.2904384,1.9673098,0.3679483,0.89568114,1.3281738,2.5862508
1258,2026-05-11 16:15:20.193680,2.2904384,1.9673098,0.3679483,0.89568114,1.3281738,2.5862508
1259,2026-05-11 16:15:20.196388,2.2904384,1.9673098,0.3679483,0.89568114,1.3281738,2.5862508
1260,2026-05-11 16:15:20.199383,2.2904384,1.9673098,0.3679483,0.89568114,1.3281738,2.5862508
1261,2026-05-11 16:15:20.202440,2.2904384,1.9673098,0.3679483,0.91919947,1.4680619,2.3041837
1262,2026-05-11 16:15:20.205261,2.0703037,1.9221244,0.20769504,1.0861185,1.2186762,1.7017179
1263,2026-05-11 16:15:20.207880,2.0703037,1.9221244,0.20769504,1.0861185,1.2186762,1.7017179
1264,2026-05-11 16:15:20.210439,2.0703037,1.9221244,0.20769504,1.0861185,1.2186762,1.7017179
1265,2026-05-11 16:15:20.213307,2.0703037,1.9221244,0.20769504,1.0861185,1.2186762,1.7017179
1266,2026-05-11 16:15:20.216460,2.0703037,1.9221244,0.20769504,1.0861185,1.2186762,1.7017179
1267,2026-05-11 16:15:20.219322,2.0703037,1.9221244,0.20769504,1.0861185,1.2186762,1.7017179
1268,2026-05-11 16:15:20.221946,2.0703037,1.9221244,0.20769504,1.0861185,1.2186762,1.7017179
1269,2026-05-11 16:15:20.224540,2.0703037,1.9221244,0.20769504,1.0861185,1.2186762,1.7017179
1270,2026-05-11 16:15:20.227154,2.0703037,1.9221244,0.20769504,1.0861185,1.2186762,1.7017179
1271,2026-05-11 16:15:20.229721,2.0703037,1.9221244,0.20769504,1.0861185,1.2186762,1.7017179
