id,timestamp,acc_x,acc_y,acc_z,gyro_x,gyro_y,gyro_z
1,2026-05-11 16:19:00.798614,0.85279363,-0.18458393,0.47813767,0.21685717,0.28160888,0.38621956
2,2026-05-11 16:19:00.808928,0.9487139,-0.15452121,0.56478906,0.19211712,0.3462079,0.22327125
3,2026-05-11 16:19:00.812120,0.9487139,-0.15452121,0.56478906,0.19211712,0.3462079,0.22327125
4,2026-05-11 16:19:00.814941,0.9487139,-0.15452121,0.56478906,0.19211712,0.3462079,0.22327125
5,2026-05-11 16:19:00.817867,0.9487139,-0.15452121,0.56478906,0.19211712,0.3462079,0.22327125
6,2026-05-11 16:19:00.821245,0.9487139,-0.15452121,0.56478906,0.19211712,0.3462079,0.22327125
7,2026-05-11 16:19:00.824111,0.9487139,-0.15452121,0.56478906,0.19211712,0.3462079,0.22327125
8,2026-05-11 16:19:00.826783,0.9487139,-0.15452121,0.56478906,0.19211712,0.3462079,0.22327125
9,2026-05-11 16:19:00.829555,0.9487139,-0.15452121,0.56478906,0.19211712,0.3462079,0.22327125
10,2026-05-11 16:19:00.832162,0.9487139,-0.15452121,0.56478906,0.19211712,0.3462079,0.22327125
11,2026-05-11 16:19:00.835045,0.9487139,-0.15452121,0.56478906,0.19211712,0.3462079,0.22327125
12,2026-05-11 16:19:00.838179,0.9487139,-0.15452121,0.56478906,0.19211712,0.3462079,0.22327125
13,2026-05-11 16:19:00.840912,0.9487139,-0.15452121,0.56478906,0.19211712,0.3462079,0.22327125
14,2026-05-11 16:19:00.843519,0.9487139,-0.15452121,0.56478906,0.19211712,0.3462079,0.22327125
15,2026-05-11 16:19:00.846094,0.9487139,-0.15452121,0.56478906,0.19211712,0.3462079,0.22327125
16,2026-05-11 16:19:00.848718,0.9487139,-0.15452121,0.56478906,0.19211712,0.3462079,0.22327125
17,2026-05-11 16:19:00.851248,0.9487139,-0.15452121,0.56478906,0.19211712,0.3462079,0.22327125
18,2026-05-11 16:19:00.854475,0.9487139,-0.15452121,0.56478906,0.19211712,0.3462079,0.22327125
19,2026-05-11 16:19:00.857228,0.9487139,-0.15452121,0.56478906,0.19211712,0.3462079,0.22327125
20,2026-05-11 16:19:00.859786,0.9487139,-0.15452121,0.56478906,0.19211712,0.3462079,0.22327125
21,2026-05-11 16:19:00.862382,0.9487139,-0.15452121,0.56478906,0.19211712,0.3462079,0.22327125
22,2026-05-11 16:19:00.865032,0.9487139,-0.15452121,0.56478906,0.19211712,0.3462079,0.22327125
23,2026-05-11 16:19:00.867583,0.9487139,-0.15452121,0.56478906,0.19211712,0.3462079,0.22327125
24,2026-05-11 16:19:00.870800,0.9487139,-0.15452121,0.56478906,0.19211712,0.3462079,0.22327125
25,2026-05-11 16:19:00.873489,0.9487139,-0.15452121,0.56478906,0.19211712,0.3462079,0.22327125
26,2026-05-11 16:19:00.876052,0.9487139,-0.15452121,0.56478906,0.19211712,0.3462079,0.22327125
27,2026-05-11 16:19:00.878827,0.9487139,-0.15452121,0.56478906,0.19211712,0.3462079,0.22327125
28,2026-05-11 16:19:00.881433,0.9487139,-0.15452121,0.56478906,0.19211712,0.3462079,0.22327125
29,2026-05-11 16:19:00.884050,0.9487139,-0.15452121,0.56478906,0.19211712,0.3462079,0.22327125
30,2026-05-11 16:19:00.887128,0.9487139,-0.15452121,0.56478906,0.19211712,0.3462079,0.22327125
31,2026-05-11 16:19:00.889797,0.9487139,-0.15452121,0.56478906,0.19211712,0.3462079,0.22327125
32,2026-05-11 16:19:00.892706,0.9487139,-0.15452121,0.56478906,0.19211712,0.3462079,0.22327125
33,2026-05-11 16:19:00.895314,0.9487139,-0.15452121,0.56478906,0.19211712,0.3462079,0.22327125
34,2026-05-11 16:19:00.897890,0.9487139,-0.15452121,0.56478906,0.19211712,0.3462079,0.22327125
35,2026-05-11 16:19:00.900594,0.9487139,-0.15452121,0.56478906,0.19211712,0.3462079,0.22327125
36,2026-05-11 16:19:00.903815,0.9487139,-0.15452121,0.56478906,0.19211712,0.3462079,0.22327125
37,2026-05-11 16:19:00.906606,0.9487139,-0.15452121,0.56478906,0.19211712,0.3462079,0.22327125
38,2026-05-11 16:19:00.909212,0.9487139,-0.15452121,0.56478906,0.19211712,0.3462079,0.22327125
39,2026-05-11 16:19:00.911765,0.9487139,-0.15452121,0.56478906,0.19211712,0.3462079,0.22327125
40,2026-05-11 16:19:00.915040,0.9487139,-0.15452121,0.56478906,0.19211712,0.3462079,0.22327125
41,2026-05-11 16:19:00.917829,0.9487139,-0.15452121,0.56478906,0.19211712,0.3462079,0.22327125
42,2026-05-11 16:19:00.921001,0.9487139,-0.15452121,0.56478906,0.19211712,0.3462079,0.22327125
43,2026-05-11 16:19:00.923742,0.9487139,-0.15452121,0.56478906,0.19211712,0.3462079,0.22327125
44,2026-05-11 16:19:00.926374,0.9487139,-0.15452121,0.56478906,0.19211712,0.3462079,0.22327125
45,2026-05-11 16:19:00.928954,0.9487139,-0.15452121,0.56478906,0.19211712,0.3462079,0.22327125
46,2026-05-11 16:19:00.931510,0.9487139,-0.15452121,0.56478906,0.19211712,0.3462079,0.22327125
47,2026-05-11 16:19:00.934044,0.9487139,-0.15452121,0.56478906,0.19211712,0.3462079,0.22327125
48,2026-05-11 16:19:00.937082,0.9487139,-0.15452121,0.56478906,0.19211712,0.3462079,0.22327125
49,2026-05-11 16:19:00.939795,0.9487139,-0.15452121,0.56478906,0.19211712,0.3462079,0.22327125
50,2026-05-11 16:19:00.942362,0.9487139,-0.15452121,0.56478906,0.19211712,0.3462079,0.22327125
51,2026-05-11 16:19:00.945087,0.9487139,-0.15452121,0.56478906,0.19211712,0.3462079,0.22327125
52,2026-05-11 16:19:00.947642,0.9487139,-0.15452121,0.56478906,0.19211712,0.3462079,0.22327125
53,2026-05-11 16:19:00.950450,0.9487139,-0.15452121,0.56478906,0.19211712,0.3462079,0.22327125
54,2026-05-11 16:19:00.953780,0.9487139,-0.15452121,0.56478906,0.19211712,0.3462079,0.22327125
55,2026-05-11 16:19:00.956555,0.9487139,-0.15452121,0.56478906,0.19211712,0.3462079,0.22327125
56,2026-05-11 16:19:00.959193,0.9487139,-0.15452121,0.56478906,0.19211712,0.3462079,0.22327125
57,2026-05-11 16:19:00.961925,0.9487139,-0.15452121,0.56478906,0.19211712,0.3462079,0.22327125
58,2026-05-11 16:19:00.964530,0.9487139,-0.15452121,0.56478906,0.19211712,0.3462079,0.22327125
59,2026-05-11 16:19:00.967079,0.9487139,-0.15452121,0.56478906,0.19211712,0.3462079,0.22327125
60,2026-05-11 16:19:00.970194,0.9487139,-0.15452121,0.56478906,0.19211712,0.3462079,0.22327125
61,2026-05-11 16:19:00.972899,0.9487139,-0.15452121,0.56478906,0.19211712,0.3462079,0.22327125
62,2026-05-11 16:19:00.975522,0.9487139,-0.15452121,0.56478906,0.19211712,0.3462079,0.22327125
63,2026-05-11 16:19:00.978217,0.9487139,-0.15452121,0.56478906,0.19211712,0.3462079,0.22327125
64,2026-05-11 16:19:00.980812,0.9487139,-0.15452121,0.56478906,0.19211712,0.3462079,0.22327125
65,2026-05-11 16:19:00.983659,0.9487139,-0.15452121,0.56478906,0.19211712,0.3462079,0.22327125
66,2026-05-11 16:19:00.986316,0.9487139,-0.15452121,0.56478906,0.19211712,0.3462079,0.22327125
67,2026-05-11 16:19:00.989817,0.9487139,-0.15452121,0.56478906,0.19211712,0.3462079,0.22327125
68,2026-05-11 16:19:00.992622,0.9487139,-0.15452121,0.56478906,0.19211712,0.3462079,0.22327125
69,2026-05-11 16:19:00.995229,0.9487139,-0.15452121,0.56478906,0.19211712,0.3462079,0.22327125
70,2026-05-11 16:19:00.997821,0.9487139,-0.15452121,0.56478906,0.19211712,0.3462079,0.22327125
71,2026-05-11 16:19:01.000510,0.9487139,-0.15452121,0.56478906,0.19211712,0.3462079,0.22327125
72,2026-05-11 16:19:01.003336,0.9487139,-0.15452121,0.56478906,0.19211712,0.3462079,0.22327125
73,2026-05-11 16:19:01.006774,0.9487139,-0.15452121,0.56478906,0.19211712,0.3462079,0.22327125
74,2026-05-11 16:19:01.009673,0.9487139,-0.15452121,0.56478906,0.19211712,0.3462079,0.22327125
75,2026-05-11 16:19:01.012368,0.9487139,-0.15452121,0.56478906,0.19211712,0.3462079,0.22327125
76,2026-05-11 16:19:01.014949,0.9487139,-0.15452121,0.56478906,0.19211712,0.3462079,0.22327125
77,2026-05-11 16:19:01.017610,0.9487139,-0.15452121,0.56478906,0.19211712,0.3462079,0.22327125
78,2026-05-11 16:19:01.020500,0.9487139,-0.15452121,0.56478906,0.19211712,0.3462079,0.22327125
79,2026-05-11 16:19:01.023280,0.9487139,-0.15452121,0.56478906,0.19211712,0.3462079,0.22327125
80,2026-05-11 16:19:01.025987,0.91212636,-0.13830076,0.55344695,0.258396,0.24419338,0.06093381
81,2026-05-11 16:19:01.028555,0.91212636,-0.13830076,0.55344695,0.258396,0.24419338,0.06093381
82,2026-05-11 16:19:01.031405,0.91212636,-0.13830076,0.55344695,0.258396,0.24419338,0.06093381
83,2026-05-11 16:19:01.034012,0.91212636,-0.13830076,0.55344695,0.258396,0.24419338,0.06093381
84,2026-05-11 16:19:01.037098,0.91212636,-0.13830076,0.55344695,0.258396,0.24419338,0.06093381
85,2026-05-11 16:19:01.039973,0.91212636,-0.13830076,0.55344695,0.258396,0.24419338,0.06093381
86,2026-05-11 16:19:01.042611,0.91212636,-0.13830076,0.55344695,0.258396,0.24419338,0.06093381
87,2026-05-11 16:19:01.045160,0.91212636,-0.13830076,0.55344695,0.258396,0.24419338,0.06093381
88,2026-05-11 16:19:01.047795,0.91212636,-0.13830076,0.55344695,0.258396,0.24419338,0.06093381
89,2026-05-11 16:19:01.050326,0.91212636,-0.13830076,0.55344695,0.258396,0.24419338,0.06093381
90,2026-05-11 16:19:01.053345,0.91212636,-0.13830076,0.55344695,0.258396,0.24419338,0.06093381
91,2026-05-11 16:19:01.056069,0.91212636,-0.13830076,0.55344695,0.258396,0.24419338,0.06093381
92,2026-05-11 16:19:01.058618,0.91212636,-0.13830076,0.55344695,0.258396,0.24419338,0.06093381
93,2026-05-11 16:19:01.061190,0.91212636,-0.13830076,0.55344695,0.258396,0.24419338,0.06093381
94,2026-05-11 16:19:01.063999,0.91212636,-0.13830076,0.55344695,0.258396,0.24419338,0.06093381
95,2026-05-11 16:19:01.066617,0.91212636,-0.13830076,0.55344695,0.258396,0.24419338,0.06093381
96,2026-05-11 16:19:01.069609,0.91212636,-0.13830076,0.55344695,0.258396,0.24419338,0.06093381
97,2026-05-11 16:19:01.072634,0.91212636,-0.13830076,0.55344695,0.258396,0.24419338,0.06093381
98,2026-05-11 16:19:01.075272,0.91212636,-0.13830076,0.55344695,0.258396,0.24419338,0.06093381
99,2026-05-11 16:19:01.078070,0.91212636,-0.13830076,0.55344695,0.258396,0.24419338,0.06093381
100,2026-05-11 16:19:01.080683,0.91212636,-0.13830076,0.55344695,0.258396,0.24419338,0.06093381
101,2026-05-11 16:19:01.083348,0.91212636,-0.13830076,0.55344695,0.258396,0.24419338,0.06093381
102,2026-05-11 16:19:01.086435,0.91212636,-0.13830076,0.55344695,0.258396,0.24419338,0.06093381
103,2026-05-11 16:19:01.089189,0.91212636,-0.13830076,0.55344695,0.258396,0.24419338,0.06093381
104,2026-05-11 16:19:01.091790,0.91212636,-0.13830076,0.55344695,0.258396,0.24419338,0.06093381
105,2026-05-11 16:19:01.094328,0.91212636,-0.13830076,0.55344695,0.258396,0.24419338,0.06093381
106,2026-05-11 16:19:01.096891,0.91212636,-0.13830076,0.55344695,0.258396,0.24419338,0.06093381
107,2026-05-11 16:19:01.099671,0.91212636,-0.13830076,0.55344695,0.258396,0.24419338,0.06093381
108,2026-05-11 16:19:01.102303,0.91212636,-0.13830076,0.55344695,0.258396,0.24419338,0.06093381
109,2026-05-11 16:19:01.105907,0.91212636,-0.13830076,0.55344695,0.258396,0.24419338,0.06093381
110,2026-05-11 16:19:01.108547,0.91212636,-0.13830076,0.55344695,0.258396,0.24419338,0.06093381
111,2026-05-11 16:19:01.111136,0.91212636,-0.13830076,0.55344695,0.258396,0.24419338,0.06093381
112,2026-05-11 16:19:01.113869,0.91212636,-0.13830076,0.55344695,0.258396,0.24419338,0.06093381
113,2026-05-11 16:19:01.116398,0.91212636,-0.13830076,0.55344695,0.258396,0.24419338,0.06093381
114,2026-05-11 16:19:01.119546,0.91212636,-0.13830076,0.55344695,0.258396,0.24419338,0.06093381
115,2026-05-11 16:19:01.122495,0.91212636,-0.13830076,0.55344695,0.258396,0.24419338,0.06093381
116,2026-05-11 16:19:01.125151,0.91212636,-0.13830076,0.55344695,0.258396,0.24419338,0.06093381
117,2026-05-11 16:19:01.127758,0.91212636,-0.13830076,0.55344695,0.258396,0.24419338,0.06093381
118,2026-05-11 16:19:01.130530,0.91212636,-0.13830076,0.55344695,0.258396,0.24419338,0.06093381
119,2026-05-11 16:19:01.133086,0.91212636,-0.13830076,0.55344695,0.258396,0.24419338,0.06093381
120,2026-05-11 16:19:01.136077,0.91212636,-0.13830076,0.55344695,0.258396,0.24419338,0.06093381
121,2026-05-11 16:19:01.138786,0.91212636,-0.13830076,0.55344695,0.258396,0.24419338,0.06093381
122,2026-05-11 16:19:01.141386,0.91212636,-0.13830076,0.55344695,0.258396,0.24419338,0.06093381
123,2026-05-11 16:19:01.144008,0.91212636,-0.13830076,0.55344695,0.258396,0.24419338,0.06093381
124,2026-05-11 16:19:01.146579,0.91212636,-0.13830076,0.55344695,0.258396,0.24419338,0.06093381
125,2026-05-11 16:19:01.149301,0.91212636,-0.13830076,0.55344695,0.258396,0.24419338,0.06093381
126,2026-05-11 16:19:01.151964,0.91212636,-0.13830076,0.55344695,0.258396,0.24419338,0.06093381
127,2026-05-11 16:19:01.155238,0.91212636,-0.13830076,0.55344695,0.258396,0.24419338,0.06093381
128,2026-05-11 16:19:01.157950,0.91212636,-0.13830076,0.55344695,0.258396,0.24419338,0.06093381
129,2026-05-11 16:19:01.160629,0.91212636,-0.13830076,0.55344695,0.258396,0.24419338,0.06093381
130,2026-05-11 16:19:01.163191,0.91212636,-0.13830076,0.55344695,0.258396,0.24419338,0.06093381
131,2026-05-11 16:19:01.165943,0.91212636,-0.13830076,0.55344695,0.258396,0.24419338,0.06093381
132,2026-05-11 16:19:01.168597,0.91212636,-0.13830076,0.55344695,0.258396,0.24419338,0.06093381
133,2026-05-11 16:19:01.171790,0.91212636,-0.13830076,0.55344695,0.258396,0.24419338,0.06093381
134,2026-05-11 16:19:01.174592,0.91212636,-0.13830076,0.55344695,0.258396,0.24419338,0.06093381
135,2026-05-11 16:19:01.177146,0.91212636,-0.13830076,0.55344695,0.258396,0.24419338,0.06093381
136,2026-05-11 16:19:01.179766,0.91212636,-0.13830076,0.55344695,0.258396,0.24419338,0.06093381
137,2026-05-11 16:19:01.182502,0.91212636,-0.13830076,0.55344695,0.258396,0.24419338,0.06093381
138,2026-05-11 16:19:01.185176,0.91212636,-0.13830076,0.55344695,0.29733866,0.041080687,-0.04016439
139,2026-05-11 16:19:01.188267,0.91212636,-0.13830076,0.55344695,0.29733866,0.041080687,-0.04016439
140,2026-05-11 16:19:01.190967,0.91212636,-0.13830076,0.55344695,0.29733866,0.041080687,-0.04016439
141,2026-05-11 16:19:01.193539,0.91212636,-0.13830076,0.55344695,0.29733866,0.041080687,-0.04016439
142,2026-05-11 16:19:01.196284,0.91212636,-0.13830076,0.55344695,0.29733866,0.041080687,-0.04016439
143,2026-05-11 16:19:01.198868,0.91212636,-0.13830076,0.55344695,0.29733866,0.041080687,-0.04016439
144,2026-05-11 16:19:01.201463,0.91212636,-0.13830076,0.55344695,0.29733866,0.041080687,-0.04016439
145,2026-05-11 16:19:01.204319,0.91212636,-0.13830076,0.55344695,0.29733866,0.041080687,-0.04016439
146,2026-05-11 16:19:01.207130,0.91212636,-0.13830076,0.55344695,0.29733866,0.041080687,-0.04016439
147,2026-05-11 16:19:01.209710,0.91212636,-0.13830076,0.55344695,0.29733866,0.041080687,-0.04016439
148,2026-05-11 16:19:01.212270,0.91212636,-0.13830076,0.55344695,0.29733866,0.041080687,-0.04016439
149,2026-05-11 16:19:01.215029,0.91212636,-0.13830076,0.55344695,0.29733866,0.041080687,-0.04016439
150,2026-05-11 16:19:01.217633,0.91212636,-0.13830076,0.55344695,0.29733866,0.041080687,-0.04016439
151,2026-05-11 16:19:01.220487,0.91212636,-0.13830076,0.55344695,0.29733866,0.041080687,-0.04016439
152,2026-05-11 16:19:01.223273,0.91212636,-0.13830076,0.55344695,0.29733866,0.041080687,-0.04016439
153,2026-05-11 16:19:01.225827,0.91212636,-0.13830076,0.55344695,0.29733866,0.041080687,-0.04016439
154,2026-05-11 16:19:01.228394,0.91212636,-0.13830076,0.55344695,0.29733866,0.041080687,-0.04016439
155,2026-05-11 16:19:01.231160,0.91212636,-0.13830076,0.55344695,0.29733866,0.041080687,-0.04016439
156,2026-05-11 16:19:01.233832,0.91212636,-0.13830076,0.55344695,0.29733866,0.041080687,-0.04016439
157,2026-05-11 16:19:01.237497,0.91212636,-0.13830076,0.55344695,0.29733866,0.041080687,-0.04016439
158,2026-05-11 16:19:01.240419,0.91212636,-0.13830076,0.55344695,0.29733866,0.041080687,-0.04016439
159,2026-05-11 16:19:01.243134,0.91212636,-0.13830076,0.55344695,0.29733866,0.041080687,-0.04016439
160,2026-05-11 16:19:01.245775,0.799132,-0.12634884,0.456673,0.29733866,0.041080687,-0.04016439
161,2026-05-11 16:19:01.248449,0.799132,-0.12634884,0.456673,0.29733866,0.041080687,-0.04016439
162,2026-05-11 16:19:01.251013,0.799132,-0.12634884,0.456673,0.29733866,0.041080687,-0.04016439
163,2026-05-11 16:19:01.254189,0.799132,-0.12634884,0.456673,0.29733866,0.041080687,-0.04016439
164,2026-05-11 16:19:01.256896,0.799132,-0.12634884,0.456673,0.29733866,0.041080687,-0.04016439
165,2026-05-11 16:19:01.259476,0.799132,-0.12634884,0.456673,0.29733866,0.041080687,-0.04016439
166,2026-05-11 16:19:01.262210,0.799132,-0.12634884,0.456673,0.29733866,0.041080687,-0.04016439
167,2026-05-11 16:19:01.264817,0.799132,-0.12634884,0.456673,0.29733866,0.041080687,-0.04016439
168,2026-05-11 16:19:01.267699,0.799132,-0.12634884,0.456673,0.29733866,0.041080687,-0.04016439
169,2026-05-11 16:19:01.270791,0.799132,-0.12634884,0.456673,0.29733866,0.041080687,-0.04016439
170,2026-05-11 16:19:01.273554,0.799132,-0.12634884,0.456673,0.29733866,0.041080687,-0.04016439
171,2026-05-11 16:19:01.276121,0.799132,-0.12634884,0.456673,0.29733866,0.041080687,-0.04016439
172,2026-05-11 16:19:01.278659,0.799132,-0.12634884,0.456673,0.29733866,0.041080687,-0.04016439
173,2026-05-11 16:19:01.281139,0.799132,-0.12634884,0.456673,0.29733866,0.041080687,-0.04016439
174,2026-05-11 16:19:01.283880,0.799132,-0.12634884,0.456673,0.29733866,0.041080687,-0.04016439
175,2026-05-11 16:19:01.286726,0.799132,-0.12634884,0.456673,0.29733866,0.041080687,-0.04016439
176,2026-05-11 16:19:01.289365,0.799132,-0.12634884,0.456673,0.29733866,0.041080687,-0.04016439
177,2026-05-11 16:19:01.292040,0.799132,-0.12634884,0.456673,0.29733866,0.041080687,-0.04016439
178,2026-05-11 16:19:01.294544,0.799132,-0.12634884,0.456673,0.29733866,0.041080687,-0.04016439
179,2026-05-11 16:19:01.297131,0.799132,-0.12634884,0.456673,0.29733866,0.041080687,-0.04016439
180,2026-05-11 16:19:01.299611,0.799132,-0.12634884,0.456673,0.29733866,0.041080687,-0.04016439
181,2026-05-11 16:19:01.302313,0.799132,-0.12634884,0.456673,0.29733866,0.041080687,-0.04016439
182,2026-05-11 16:19:01.305308,0.799132,-0.12634884,0.456673,0.29733866,0.041080687,-0.04016439
183,2026-05-11 16:19:01.307831,0.799132,-0.12634884,0.456673,0.29733866,0.041080687,-0.04016439
184,2026-05-11 16:19:01.310347,0.799132,-0.12634884,0.456673,0.29733866,0.041080687,-0.04016439
185,2026-05-11 16:19:01.312946,0.799132,-0.12634884,0.456673,0.29733866,0.041080687,-0.04016439
186,2026-05-11 16:19:01.315536,0.799132,-0.12634884,0.456673,0.29733866,0.041080687,-0.04016439
187,2026-05-11 16:19:01.318076,0.799132,-0.12634884,0.456673,0.29733866,0.041080687,-0.04016439
188,2026-05-11 16:19:01.321058,0.799132,-0.12634884,0.456673,0.29733866,0.041080687,-0.04016439
189,2026-05-11 16:19:01.323699,0.799132,-0.12634884,0.456673,0.29733866,0.041080687,-0.04016439
190,2026-05-11 16:19:01.326353,0.799132,-0.12634884,0.456673,0.29733866,0.041080687,-0.04016439
191,2026-05-11 16:19:01.328917,0.799132,-0.12634884,0.456673,0.29733866,0.041080687,-0.04016439
192,2026-05-11 16:19:01.331483,0.799132,-0.12634884,0.456673,0.29733866,0.041080687,-0.04016439
193,2026-05-11 16:19:01.334150,0.799132,-0.12634884,0.456673,0.29733866,0.041080687,-0.04016439
194,2026-05-11 16:19:01.337269,0.799132,-0.12634884,0.456673,0.29733866,0.041080687,-0.04016439
195,2026-05-11 16:19:01.340104,0.799132,-0.12634884,0.456673,0.29733866,0.041080687,-0.04016439
196,2026-05-11 16:19:01.342821,0.799132,-0.12634884,0.456673,0.29733866,0.041080687,-0.04016439
197,2026-05-11 16:19:01.345468,0.799132,-0.12634884,0.456673,0.29733866,0.041080687,-0.04016439
198,2026-05-11 16:19:01.348022,0.799132,-0.12634884,0.456673,0.29733866,0.041080687,-0.04016439
199,2026-05-11 16:19:01.350598,0.799132,-0.12634884,0.456673,0.29733866,0.041080687,-0.04016439
200,2026-05-11 16:19:01.353525,0.799132,-0.12634884,0.456673,0.29733866,0.041080687,-0.04016439
201,2026-05-11 16:19:01.356258,0.799132,-0.12634884,0.456673,0.29733866,0.041080687,-0.04016439
202,2026-05-11 16:19:01.358974,0.799132,-0.12634884,0.456673,0.29733866,0.041080687,-0.04016439
203,2026-05-11 16:19:01.361547,0.799132,-0.12634884,0.456673,0.29733866,0.041080687,-0.04016439
204,2026-05-11 16:19:01.364487,0.799132,-0.12634884,0.456673,0.29733866,0.041080687,-0.04016439
205,2026-05-11 16:19:01.367127,0.799132,-0.12634884,0.456673,0.29733866,0.041080687,-0.04016439
206,2026-05-11 16:19:01.370264,0.799132,-0.12634884,0.456673,0.29733866,0.041080687,-0.04016439
207,2026-05-11 16:19:01.373165,0.7213836,-0.1009815,0.28989497,0.02687807,-0.40301836,-0.1611157
208,2026-05-11 16:19:01.375905,0.7213836,-0.1009815,0.28989497,0.02687807,-0.40301836,-0.1611157
209,2026-05-11 16:19:01.378465,0.7213836,-0.1009815,0.28989497,0.02687807,-0.40301836,-0.1611157
210,2026-05-11 16:19:01.381228,0.7213836,-0.1009815,0.28989497,0.02687807,-0.40301836,-0.1611157
211,2026-05-11 16:19:01.383795,0.7213836,-0.1009815,0.28989497,0.02687807,-0.40301836,-0.1611157
212,2026-05-11 16:19:01.386850,0.7213836,-0.1009815,0.28989497,0.02687807,-0.40301836,-0.1611157
213,2026-05-11 16:19:01.389643,0.7213836,-0.1009815,0.28989497,0.02687807,-0.40301836,-0.1611157
214,2026-05-11 16:19:01.392238,0.7213836,-0.1009815,0.28989497,0.02687807,-0.40301836,-0.1611157
215,2026-05-11 16:19:01.394920,0.7213836,-0.1009815,0.28989497,0.02687807,-0.40301836,-0.1611157
216,2026-05-11 16:19:01.397471,0.7213836,-0.1009815,0.28989497,0.02687807,-0.40301836,-0.1611157
217,2026-05-11 16:19:01.400179,0.7213836,-0.1009815,0.28989497,0.02687807,-0.40301836,-0.1611157
218,2026-05-11 16:19:01.403237,0.7213836,-0.1009815,0.28989497,0.02687807,-0.40301836,-0.1611157
219,2026-05-11 16:19:01.406001,0.7213836,-0.1009815,0.28989497,0.02687807,-0.40301836,-0.1611157
220,2026-05-11 16:19:01.408556,0.7213836,-0.1009815,0.28989497,0.02687807,-0.40301836,-0.1611157
221,2026-05-11 16:19:01.411290,0.7213836,-0.1009815,0.28989497,0.02687807,-0.40301836,-0.1611157
222,2026-05-11 16:19:01.413877,0.7213836,-0.1009815,0.28989497,0.02687807,-0.40301836,-0.1611157
223,2026-05-11 16:19:01.416631,0.7213836,-0.1009815,0.28989497,0.02687807,-0.40301836,-0.1611157
224,2026-05-11 16:19:01.419598,0.7213836,-0.1009815,0.28989497,0.02687807,-0.40301836,-0.1611157
225,2026-05-11 16:19:01.422706,0.7213836,-0.1009815,0.28989497,0.02687807,-0.40301836,-0.1611157
226,2026-05-11 16:19:01.425294,0.7213836,-0.1009815,0.28989497,0.02687807,-0.40301836,-0.1611157
227,2026-05-11 16:19:01.428038,0.7213836,-0.1009815,0.28989497,0.02687807,-0.40301836,-0.1611157
228,2026-05-11 16:19:01.430803,0.690711,-0.14098383,0.27702835,0.02687807,-0.40301836,-0.1611157
229,2026-05-11 16:19:01.433389,0.690711,-0.14098383,0.27702835,0.02687807,-0.40301836,-0.1611157
230,2026-05-11 16:19:01.436313,0.690711,-0.14098383,0.27702835,-0.34498614,-0.3933972,-0.23472497
231,2026-05-11 16:19:01.439244,0.690711,-0.14098383,0.27702835,-0.34498614,-0.3933972,-0.23472497
232,2026-05-11 16:19:01.441826,0.690711,-0.14098383,0.27702835,-0.34498614,-0.3933972,-0.23472497
233,2026-05-11 16:19:01.444547,0.690711,-0.14098383,0.27702835,-0.34498614,-0.3933972,-0.23472497
234,2026-05-11 16:19:01.447183,0.690711,-0.14098383,0.27702835,-0.34498614,-0.3933972,-0.23472497
235,2026-05-11 16:19:01.449823,0.690711,-0.14098383,0.27702835,-0.34498614,-0.3933972,-0.23472497
236,2026-05-11 16:19:01.452847,0.690711,-0.14098383,0.27702835,-0.34498614,-0.3933972,-0.23472497
237,2026-05-11 16:19:01.455677,0.690711,-0.14098383,0.27702835,-0.34498614,-0.3933972,-0.23472497
238,2026-05-11 16:19:01.458233,0.690711,-0.14098383,0.27702835,-0.34498614,-0.3933972,-0.23472497
239,2026-05-11 16:19:01.460798,0.690711,-0.14098383,0.27702835,-0.34498614,-0.3933972,-0.23472497
240,2026-05-11 16:19:01.463564,0.690711,-0.14098383,0.27702835,-0.34498614,-0.3933972,-0.23472497
241,2026-05-11 16:19:01.466113,0.690711,-0.14098383,0.27702835,-0.34498614,-0.3933972,-0.23472497
242,2026-05-11 16:19:01.469032,0.690711,-0.14098383,0.27702835,-0.34498614,-0.3933972,-0.23472497
243,2026-05-11 16:19:01.472119,0.690711,-0.14098383,0.27702835,-0.34498614,-0.3933972,-0.23472497
244,2026-05-11 16:19:01.474728,0.690711,-0.14098383,0.27702835,-0.34498614,-0.3933972,-0.23472497
245,2026-05-11 16:19:01.477336,0.690711,-0.14098383,0.27702835,-0.34498614,-0.3933972,-0.23472497
246,2026-05-11 16:19:01.479905,0.690711,-0.14098383,0.27702835,-0.34498614,-0.3933972,-0.23472497
247,2026-05-11 16:19:01.482666,0.690711,-0.14098383,0.27702835,-0.34498614,-0.3933972,-0.23472497
248,2026-05-11 16:19:01.485260,0.690711,-0.14098383,0.27702835,-0.34498614,-0.3933972,-0.23472497
249,2026-05-11 16:19:01.488318,0.690711,-0.14098383,0.27702835,-0.34498614,-0.3933972,-0.23472497
250,2026-05-11 16:19:01.490933,0.690711,-0.14098383,0.27702835,-0.34498614,-0.3933972,-0.23472497
251,2026-05-11 16:19:01.493452,0.690711,-0.14098383,0.27702835,-0.34498614,-0.3933972,-0.23472497
252,2026-05-11 16:19:01.496438,0.690711,-0.14098383,0.27702835,-0.34498614,-0.3933972,-0.23472497
253,2026-05-11 16:19:01.499060,0.690711,-0.14098383,0.27702835,-0.34498614,-0.3933972,-0.23472497
254,2026-05-11 16:19:01.501805,0.6501599,-0.17122951,0.32251883,-0.5458081,-0.31138855,-0.27259862
255,2026-05-11 16:19:01.504777,0.6501599,-0.17122951,0.32251883,-0.5458081,-0.31138855,-0.27259862
256,2026-05-11 16:19:01.507406,0.6501599,-0.17122951,0.32251883,-0.5458081,-0.31138855,-0.27259862
257,2026-05-11 16:19:01.510181,0.6501599,-0.17122951,0.32251883,-0.5458081,-0.31138855,-0.27259862
258,2026-05-11 16:19:01.512876,0.6501599,-0.17122951,0.32251883,-0.5458081,-0.31138855,-0.27259862
259,2026-05-11 16:19:01.515787,0.6501599,-0.17122951,0.32251883,-0.5458081,-0.31138855,-0.27259862
260,2026-05-11 16:19:01.518602,0.6501599,-0.17122951,0.32251883,-0.5458081,-0.31138855,-0.27259862
261,2026-05-11 16:19:01.521567,0.6501599,-0.17122951,0.32251883,-0.5458081,-0.31138855,-0.27259862
262,2026-05-11 16:19:01.524200,0.6501599,-0.17122951,0.32251883,-0.5458081,-0.31138855,-0.27259862
263,2026-05-11 16:19:01.526802,0.6501599,-0.17122951,0.32251883,-0.5458081,-0.31138855,-0.27259862
264,2026-05-11 16:19:01.529382,0.6501599,-0.17122951,0.32251883,-0.5458081,-0.31138855,-0.27259862
265,2026-05-11 16:19:01.532137,0.6501599,-0.17122951,0.32251883,-0.5458081,-0.31138855,-0.27259862
266,2026-05-11 16:19:01.534804,0.6501599,-0.17122951,0.32251883,-0.5458081,-0.31138855,-0.27259862
267,2026-05-11 16:19:01.537986,0.6501599,-0.17122951,0.32251883,-0.5458081,-0.31138855,-0.27259862
268,2026-05-11 16:19:01.540731,0.6501599,-0.17122951,0.32251883,-0.5458081,-0.31138855,-0.27259862
269,2026-05-11 16:19:01.543427,0.6501599,-0.17122951,0.32251883,-0.5458081,-0.31138855,-0.27259862
270,2026-05-11 16:19:01.546019,0.6501599,-0.17122951,0.32251883,-0.5458081,-0.31138855,-0.27259862
271,2026-05-11 16:19:01.548787,0.6501599,-0.17122951,0.32251883,-0.5458081,-0.31138855,-0.27259862
272,2026-05-11 16:19:01.551756,0.6501599,-0.17122951,0.32251883,-0.5458081,-0.31138855,-0.27259862
273,2026-05-11 16:19:01.554821,0.6501599,-0.17122951,0.32251883,-0.6575964,-0.2817616,-0.27580565
274,2026-05-11 16:19:01.557680,0.6501599,-0.17122951,0.32251883,-0.6575964,-0.2817616,-0.27580565
275,2026-05-11 16:19:01.560279,0.6501599,-0.17122951,0.32251883,-0.6575964,-0.2817616,-0.27580565
276,2026-05-11 16:19:01.563074,0.6501599,-0.17122951,0.32251883,-0.6575964,-0.2817616,-0.27580565
277,2026-05-11 16:19:01.565722,0.6501599,-0.17122951,0.32251883,-0.6575964,-0.2817616,-0.27580565
278,2026-05-11 16:19:01.568341,0.6501599,-0.17122951,0.32251883,-0.6575964,-0.2817616,-0.27580565
279,2026-05-11 16:19:01.571385,0.6144871,-0.18360828,0.33941004,-0.6575964,-0.2817616,-0.27580565
280,2026-05-11 16:19:01.574166,0.6144871,-0.18360828,0.33941004,-0.6575964,-0.2817616,-0.27580565
281,2026-05-11 16:19:01.576761,0.6144871,-0.18360828,0.33941004,-0.6575964,-0.2817616,-0.27580565
282,2026-05-11 16:19:01.579460,0.6144871,-0.18360828,0.33941004,-0.6575964,-0.2817616,-0.27580565
283,2026-05-11 16:19:01.582033,0.6144871,-0.18360828,0.33941004,-0.6575964,-0.2817616,-0.27580565
284,2026-05-11 16:19:01.584642,0.6144871,-0.18360828,0.33941004,-0.6575964,-0.2817616,-0.27580565
285,2026-05-11 16:19:01.587635,0.6144871,-0.18360828,0.33941004,-0.6575964,-0.2817616,-0.27580565
286,2026-05-11 16:19:01.590507,0.6144871,-0.18360828,0.33941004,-0.6575964,-0.2817616,-0.27580565
287,2026-05-11 16:19:01.593284,0.6144871,-0.18360828,0.33941004,-0.6575964,-0.2817616,-0.27580565
288,2026-05-11 16:19:01.595901,0.6144871,-0.18360828,0.33941004,-0.6575964,-0.2817616,-0.27580565
289,2026-05-11 16:19:01.598593,0.6144871,-0.18360828,0.33941004,-0.6575964,-0.2817616,-0.27580565
290,2026-05-11 16:19:01.601173,0.6144871,-0.18360828,0.33941004,-0.6575964,-0.2817616,-0.27580565
291,2026-05-11 16:19:01.604297,0.6144871,-0.18360828,0.33941004,-0.6575964,-0.2817616,-0.27580565
292,2026-05-11 16:19:01.606990,0.6144871,-0.18360828,0.33941004,-0.6575964,-0.2817616,-0.27580565
293,2026-05-11 16:19:01.609576,0.6144871,-0.18360828,0.33941004,-0.6575964,-0.2817616,-0.27580565
294,2026-05-11 16:19:01.612365,0.6144871,-0.18360828,0.33941004,-0.6575964,-0.2817616,-0.27580565
295,2026-05-11 16:19:01.615085,0.6144871,-0.18360828,0.33941004,-0.6575964,-0.2817616,-0.27580565
296,2026-05-11 16:19:01.617870,0.6144871,-0.18360828,0.33941004,-0.6575964,-0.2817616,-0.27580565
297,2026-05-11 16:19:01.621202,0.6144871,-0.18360828,0.33941004,-0.6575964,-0.2817616,-0.27580565
298,2026-05-11 16:19:01.623957,0.6144871,-0.18360828,0.33941004,-0.6575964,-0.2817616,-0.27580565
299,2026-05-11 16:19:01.626689,0.5670453,-0.18251066,0.37477797,-0.6575964,-0.2817616,-0.27580565
300,2026-05-11 16:19:01.629470,0.5670453,-0.18251066,0.37477797,-0.6575964,-0.2817616,-0.27580565
301,2026-05-11 16:19:01.632052,0.5670453,-0.18251066,0.37477797,-0.6575964,-0.2817616,-0.27580565
302,2026-05-11 16:19:01.634690,0.5670453,-0.18251066,0.37477797,-0.6575964,-0.2817616,-0.27580565
303,2026-05-11 16:19:01.637779,0.5670453,-0.18251066,0.37477797,-0.6575964,-0.2817616,-0.27580565
304,2026-05-11 16:19:01.640422,0.5670453,-0.18251066,0.37477797,-0.6575964,-0.2817616,-0.27580565
305,2026-05-11 16:19:01.642975,0.5670453,-0.18251066,0.37477797,-0.6575964,-0.2817616,-0.27580565
306,2026-05-11 16:19:01.645713,0.5670453,-0.18251066,0.37477797,-0.6575964,-0.2817616,-0.27580565
307,2026-05-11 16:19:01.648300,0.5670453,-0.18251066,0.37477797,-0.6575964,-0.2817616,-0.27580565
308,2026-05-11 16:19:01.650871,0.5670453,-0.18251066,0.37477797,-0.6575964,-0.2817616,-0.27580565
309,2026-05-11 16:19:01.653743,0.5670453,-0.18251066,0.37477797,-0.6575964,-0.2817616,-0.27580565
310,2026-05-11 16:19:01.656381,0.5670453,-0.18251066,0.37477797,-0.6575964,-0.2817616,-0.27580565
311,2026-05-11 16:19:01.658931,0.5670453,-0.18251066,0.37477797,-0.6575964,-0.2817616,-0.27580565
312,2026-05-11 16:19:01.661707,0.5670453,-0.18251066,0.37477797,-0.6575964,-0.2817616,-0.27580565
313,2026-05-11 16:19:01.664290,0.5670453,-0.18251066,0.37477797,-0.6575964,-0.2817616,-0.27580565
314,2026-05-11 16:19:01.666852,0.5670453,-0.18251066,0.37477797,-0.6575964,-0.2817616,-0.27580565
315,2026-05-11 16:19:01.669830,0.5670453,-0.18251066,0.37477797,-0.6575964,-0.2817616,-0.27580565
316,2026-05-11 16:19:01.672521,0.5670453,-0.18251066,0.37477797,-0.6575964,-0.2817616,-0.27580565
317,2026-05-11 16:19:01.675078,0.5670453,-0.18251066,0.37477797,-0.6575964,-0.2817616,-0.27580565
318,2026-05-11 16:19:01.677647,0.5670453,-0.18251066,0.37477797,-0.6575964,-0.2817616,-0.27580565
319,2026-05-11 16:19:01.680205,0.5670453,-0.18251066,0.37477797,-0.6575964,-0.2817616,-0.27580565
320,2026-05-11 16:19:01.682728,0.5670453,-0.18251066,0.37477797,-0.6575964,-0.2817616,-0.27580565
321,2026-05-11 16:19:01.685862,0.5670453,-0.18251066,0.37477797,-0.6575964,-0.2817616,-0.27580565
322,2026-05-11 16:19:01.688661,0.5670453,-0.18251066,0.37477797,-0.80939645,-0.3277292,-0.23441954
323,2026-05-11 16:19:01.691408,0.5670453,-0.18251066,0.37477797,-0.80939645,-0.3277292,-0.23441954
324,2026-05-11 16:19:01.694014,0.5670453,-0.18251066,0.37477797,-0.80939645,-0.3277292,-0.23441954
325,2026-05-11 16:19:01.696569,0.5670453,-0.18251066,0.37477797,-0.80939645,-0.3277292,-0.23441954
326,2026-05-11 16:19:01.699145,0.5670453,-0.18251066,0.37477797,-0.80939645,-0.3277292,-0.23441954
327,2026-05-11 16:19:01.701945,0.5670453,-0.18251066,0.37477797,-0.80939645,-0.3277292,-0.23441954
328,2026-05-11 16:19:01.704847,0.5670453,-0.18251066,0.37477797,-0.80939645,-0.3277292,-0.23441954
329,2026-05-11 16:19:01.707480,0.5670453,-0.18251066,0.37477797,-0.80939645,-0.3277292,-0.23441954
330,2026-05-11 16:19:01.710073,0.5670453,-0.18251066,0.37477797,-0.80939645,-0.3277292,-0.23441954
331,2026-05-11 16:19:01.712630,0.5670453,-0.18251066,0.37477797,-0.80939645,-0.3277292,-0.23441954
332,2026-05-11 16:19:01.715559,0.5670453,-0.18251066,0.37477797,-0.80939645,-0.3277292,-0.23441954
333,2026-05-11 16:19:01.718190,0.5670453,-0.18251066,0.37477797,-0.80939645,-0.3277292,-0.23441954
334,2026-05-11 16:19:01.721256,0.5670453,-0.18251066,0.37477797,-0.80939645,-0.3277292,-0.23441954
335,2026-05-11 16:19:01.723902,0.5670453,-0.18251066,0.37477797,-0.80939645,-0.3277292,-0.23441954
336,2026-05-11 16:19:01.726486,0.5670453,-0.18251066,0.37477797,-0.80939645,-0.3277292,-0.23441954
337,2026-05-11 16:19:01.729296,0.5670453,-0.18251066,0.37477797,-0.80939645,-0.3277292,-0.23441954
338,2026-05-11 16:19:01.731879,0.5670453,-0.18251066,0.37477797,-0.80939645,-0.3277292,-0.23441954
339,2026-05-11 16:19:01.734729,0.5670453,-0.18251066,0.37477797,-0.80939645,-0.3277292,-0.23441954
340,2026-05-11 16:19:01.737960,0.5670453,-0.18251066,0.37477797,-0.80939645,-0.3277292,-0.23441954
341,2026-05-11 16:19:01.740647,0.5670453,-0.18251066,0.37477797,-0.80939645,-0.3277292,-0.23441954
342,2026-05-11 16:19:01.743219,0.5670453,-0.18251066,0.37477797,-0.80939645,-0.3277292,-0.23441954
343,2026-05-11 16:19:01.745984,0.5670453,-0.18251066,0.37477797,-0.80939645,-0.3277292,-0.23441954
344,2026-05-11 16:19:01.748544,0.5670453,-0.18251066,0.37477797,-0.80939645,-0.3277292,-0.23441954
345,2026-05-11 16:19:01.751105,0.5670453,-0.18251066,0.37477797,-0.80939645,-0.3277292,-0.23441954
346,2026-05-11 16:19:01.754158,0.5670453,-0.18251066,0.37477797,-0.80939645,-0.3277292,-0.23441954
347,2026-05-11 16:19:01.756829,0.5670453,-0.18251066,0.37477797,-0.80939645,-0.3277292,-0.23441954
348,2026-05-11 16:19:01.759407,0.5670453,-0.18251066,0.37477797,-0.80939645,-0.3277292,-0.23441954
349,2026-05-11 16:19:01.762141,0.5670453,-0.18251066,0.37477797,-0.80939645,-0.3277292,-0.23441954
350,2026-05-11 16:19:01.764734,0.5670453,-0.18251066,0.37477797,-0.80939645,-0.3277292,-0.23441954
351,2026-05-11 16:19:01.793988,0.80346155,0.11092111,0.8492569,-3.947106,0.2602286,3.3819027
352,2026-05-11 16:19:01.797509,0.80346155,0.11092111,0.8492569,-3.947106,0.2602286,3.3819027
353,2026-05-11 16:19:01.801269,0.80346155,0.11092111,0.8492569,-3.947106,0.2602286,3.3819027
354,2026-05-11 16:19:01.806873,0.80346155,0.11092111,0.8492569,-3.947106,0.2602286,3.3819027
355,2026-05-11 16:19:01.809665,0.80346155,0.11092111,0.8492569,-3.947106,0.2602286,3.3819027
356,2026-05-11 16:19:01.812291,0.80346155,0.11092111,0.8492569,-3.947106,0.2602286,3.3819027
357,2026-05-11 16:19:01.815035,0.80346155,0.11092111,0.8492569,-3.947106,0.2602286,3.3819027
358,2026-05-11 16:19:01.817618,0.80346155,0.11092111,0.8492569,-3.947106,0.2602286,3.3819027
359,2026-05-11 16:19:01.820733,0.80346155,0.11092111,0.8492569,-3.947106,0.2602286,3.3819027
360,2026-05-11 16:19:01.823652,0.80346155,0.11092111,0.8492569,-3.947106,0.2602286,3.3819027
361,2026-05-11 16:19:01.826260,0.80346155,0.11092111,0.8492569,-3.947106,0.2602286,3.3819027
362,2026-05-11 16:19:01.829051,1.0475001,0.1920234,0.39374247,-6.2544966,0.29978213,3.5214853
363,2026-05-11 16:19:01.831833,1.0475001,0.1920234,0.39374247,-6.2544966,0.29978213,3.5214853
364,2026-05-11 16:19:01.834632,1.3651406,0.19129165,0.18958424,-6.2544966,0.29978213,3.5214853
365,2026-05-11 16:19:01.837754,1.3651406,0.19129165,0.18958424,-6.2544966,0.29978213,3.5214853
366,2026-05-11 16:19:01.840634,1.3651406,0.19129165,0.18958424,-6.2544966,0.29978213,3.5214853
367,2026-05-11 16:19:01.843335,1.3651406,0.19129165,0.18958424,-6.2544966,0.29978213,3.5214853
368,2026-05-11 16:19:01.845922,1.3651406,0.19129165,0.18958424,-6.2544966,0.29978213,3.5214853
369,2026-05-11 16:19:01.848519,1.3651406,0.19129165,0.18958424,-6.2544966,0.29978213,3.5214853
370,2026-05-11 16:19:01.851054,1.3651406,0.19129165,0.18958424,-6.2544966,0.29978213,3.5214853
371,2026-05-11 16:19:01.854239,1.3651406,0.19129165,0.18958424,-6.2544966,0.29978213,3.5214853
372,2026-05-11 16:19:01.856972,1.3651406,0.19129165,0.18958424,-6.2544966,0.29978213,3.5214853
373,2026-05-11 16:19:01.859578,1.3651406,0.19129165,0.18958424,-6.2544966,0.29978213,3.5214853
374,2026-05-11 16:19:01.862255,1.3651406,0.19129165,0.18958424,-6.2544966,0.29978213,3.5214853
375,2026-05-11 16:19:01.864820,1.3651406,0.19129165,0.18958424,-6.2544966,0.29978213,3.5214853
376,2026-05-11 16:19:01.867572,1.3651406,0.19129165,0.18958424,-6.2544966,0.29978213,3.5214853
377,2026-05-11 16:19:01.870456,1.3651406,0.19129165,0.18958424,-6.2544966,0.29978213,3.5214853
378,2026-05-11 16:19:01.873310,1.3651406,0.19129165,0.18958424,-6.2544966,0.29978213,3.5214853
379,2026-05-11 16:19:01.875864,1.3651406,0.19129165,0.18958424,-6.2544966,0.29978213,3.5214853
380,2026-05-11 16:19:01.878383,1.3651406,0.19129165,0.18958424,-6.2544966,0.29978213,3.5214853
381,2026-05-11 16:19:01.880990,1.3651406,0.19129165,0.18958424,-6.2544966,0.29978213,3.5214853
382,2026-05-11 16:19:01.883581,1.3651406,0.19129165,0.18958424,-6.2544966,0.29978213,3.5214853
383,2026-05-11 16:19:01.886487,1.3651406,0.19129165,0.18958424,-6.2544966,0.29978213,3.5214853
384,2026-05-11 16:19:01.889330,1.3651406,0.19129165,0.18958424,-6.2544966,0.29978213,3.5214853
385,2026-05-11 16:19:01.892102,1.3651406,0.19129165,0.18958424,-6.2544966,0.29978213,3.5214853
386,2026-05-11 16:19:01.894859,1.3651406,0.19129165,0.18958424,-6.2544966,0.29978213,3.5214853
387,2026-05-11 16:19:01.897464,1.3651406,0.19129165,0.18958424,-6.2544966,0.29978213,3.5214853
388,2026-05-11 16:19:01.900175,1.3651406,0.19129165,0.18958424,-6.2544966,0.29978213,3.5214853
389,2026-05-11 16:19:01.903169,1.3651406,0.19129165,0.18958424,-6.2544966,0.29978213,3.5214853
390,2026-05-11 16:19:01.906026,1.3651406,0.19129165,0.18958424,-6.2544966,0.29978213,3.5214853
391,2026-05-11 16:19:01.908605,1.3651406,0.19129165,0.18958424,-6.2544966,0.29978213,3.5214853
392,2026-05-11 16:19:01.911285,1.3651406,0.19129165,0.18958424,-6.2544966,0.29978213,3.5214853
393,2026-05-11 16:19:01.913877,1.3651406,0.19129165,0.18958424,-6.2544966,0.29978213,3.5214853
394,2026-05-11 16:19:01.916704,1.6393639,0.0717115,0.21367101,-6.2544966,0.29978213,3.5214853
395,2026-05-11 16:19:01.920029,1.6393639,0.0717115,0.21367101,-6.2544966,0.29978213,3.5214853
396,2026-05-11 16:19:01.922883,1.6393639,0.0717115,0.21367101,-6.2544966,0.29978213,3.5214853
397,2026-05-11 16:19:01.925468,1.6393639,0.0717115,0.21367101,-6.2544966,0.29978213,3.5214853
398,2026-05-11 16:19:01.928335,1.6393639,0.0717115,0.21367101,-6.2544966,0.29978213,3.5214853
399,2026-05-11 16:19:01.930933,1.6393639,0.0717115,0.21367101,-6.2544966,0.29978213,3.5214853
400,2026-05-11 16:19:01.933561,1.6393639,0.0717115,0.21367101,-6.2544966,0.29978213,3.5214853
401,2026-05-11 16:19:01.936461,1.6393639,0.0717115,0.21367101,-8.067086,0.9265299,3.1943672
402,2026-05-11 16:19:01.939452,1.6393639,0.0717115,0.21367101,-8.067086,0.9265299,3.1943672
403,2026-05-11 16:19:01.942153,1.6393639,0.0717115,0.21367101,-8.067086,0.9265299,3.1943672
404,2026-05-11 16:19:01.944873,1.6393639,0.0717115,0.21367101,-8.067086,0.9265299,3.1943672
405,2026-05-11 16:19:01.947475,1.6393639,0.0717115,0.21367101,-8.067086,0.9265299,3.1943672
406,2026-05-11 16:19:01.950181,1.6393639,0.0717115,0.21367101,-8.067086,0.9265299,3.1943672
407,2026-05-11 16:19:01.953239,1.6393639,0.0717115,0.21367101,-8.067086,0.9265299,3.1943672
408,2026-05-11 16:19:01.956006,1.6393639,0.0717115,0.21367101,-8.067086,0.9265299,3.1943672
409,2026-05-11 16:19:01.958595,1.6393639,0.0717115,0.21367101,-8.067086,0.9265299,3.1943672
410,2026-05-11 16:19:01.961390,1.6393639,0.0717115,0.21367101,-8.067086,0.9265299,3.1943672
411,2026-05-11 16:19:01.964101,1.6393639,0.0717115,0.21367101,-8.067086,0.9265299,3.1943672
412,2026-05-11 16:19:01.966839,1.6393639,0.0717115,0.21367101,-8.067086,0.9265299,3.1943672
413,2026-05-11 16:19:01.969881,1.6393639,0.0717115,0.21367101,-8.067086,0.9265299,3.1943672
414,2026-05-11 16:19:01.972625,1.6393639,0.0717115,0.21367101,-8.067086,0.9265299,3.1943672
415,2026-05-11 16:19:01.975181,1.6393639,0.0717115,0.21367101,-8.067086,0.9265299,3.1943672
416,2026-05-11 16:19:01.977881,1.6393639,0.0717115,0.21367101,-8.067086,0.9265299,3.1943672
417,2026-05-11 16:19:01.980493,1.6393639,0.0717115,0.21367101,-8.067086,0.9265299,3.1943672
418,2026-05-11 16:19:01.983076,1.6393639,0.0717115,0.21367101,-8.067086,0.9265299,3.1943672
419,2026-05-11 16:19:01.986019,1.6393639,0.0717115,0.21367101,-8.067086,0.9265299,3.1943672
420,2026-05-11 16:19:01.988698,1.6393639,0.0717115,0.21367101,-8.067086,0.9265299,3.1943672
421,2026-05-11 16:19:01.991265,1.6393639,0.0717115,0.21367101,-8.067086,0.9265299,3.1943672
422,2026-05-11 16:19:01.993997,1.6393639,0.0717115,0.21367101,-8.067086,0.9265299,3.1943672
423,2026-05-11 16:19:01.996574,1.6393639,0.0717115,0.21367101,-8.067086,0.9265299,3.1943672
424,2026-05-11 16:19:01.999134,1.6393639,0.0717115,0.21367101,-8.067086,0.9265299,3.1943672
425,2026-05-11 16:19:02.002260,1.6393639,0.0717115,0.21367101,-8.067086,0.9265299,3.1943672
426,2026-05-11 16:19:02.005058,1.6393639,0.0717115,0.21367101,-8.067086,0.9265299,3.1943672
427,2026-05-11 16:19:02.007688,1.6393639,0.0717115,0.21367101,-8.067086,0.9265299,3.1943672
428,2026-05-11 16:19:02.010317,1.6393639,0.0717115,0.21367101,-8.067086,0.9265299,3.1943672
429,2026-05-11 16:19:02.012879,1.6393639,0.0717115,0.21367101,-8.067086,0.9265299,3.1943672
430,2026-05-11 16:19:02.015591,1.6393639,0.0717115,0.21367101,-8.067086,0.9265299,3.1943672
431,2026-05-11 16:19:02.018178,1.6393639,0.0717115,0.21367101,-8.067086,0.9265299,3.1943672
432,2026-05-11 16:19:02.021304,1.6393639,0.0717115,0.21367101,-8.067086,0.9265299,3.1943672
433,2026-05-11 16:19:02.024009,1.6393639,0.0717115,0.21367101,-8.067086,0.9265299,3.1943672
434,2026-05-11 16:19:02.026610,1.6393639,0.0717115,0.21367101,-8.067086,0.9265299,3.1943672
435,2026-05-11 16:19:02.029385,1.6393639,0.0717115,0.21367101,-8.067086,0.9265299,3.1943672
436,2026-05-11 16:19:02.031972,1.6393639,0.0717115,0.21367101,-8.067086,0.9265299,3.1943672
437,2026-05-11 16:19:02.034648,1.6393639,0.0717115,0.21367101,-8.067086,0.9265299,3.1943672
438,2026-05-11 16:19:02.037576,1.6393639,0.0717115,0.21367101,-8.067086,0.9265299,3.1943672
439,2026-05-11 16:19:02.040397,1.6393639,0.0717115,0.21367101,-8.067086,0.9265299,3.1943672
440,2026-05-11 16:19:02.042962,1.6393639,0.0717115,0.21367101,-8.067086,0.9265299,3.1943672
441,2026-05-11 16:19:02.045559,1.5580177,-0.037014354,0.39416936,-8.067086,0.9265299,3.1943672
442,2026-05-11 16:19:02.048160,1.5580177,-0.037014354,0.39416936,-8.067086,0.9265299,3.1943672
443,2026-05-11 16:19:02.050715,1.5580177,-0.037014354,0.39416936,-9.390678,1.664455,2.796541
444,2026-05-11 16:19:02.053905,1.5580177,-0.037014354,0.39416936,-9.390678,1.664455,2.796541
445,2026-05-11 16:19:02.056631,1.5580177,-0.037014354,0.39416936,-9.390678,1.664455,2.796541
446,2026-05-11 16:19:02.059315,1.5580177,-0.037014354,0.39416936,-9.390678,1.664455,2.796541
447,2026-05-11 16:19:02.061894,1.5580177,-0.037014354,0.39416936,-9.390678,1.664455,2.796541
448,2026-05-11 16:19:02.064541,1.5580177,-0.037014354,0.39416936,-9.390678,1.664455,2.796541
449,2026-05-11 16:19:02.067064,1.5580177,-0.037014354,0.39416936,-9.390678,1.664455,2.796541
450,2026-05-11 16:19:02.070185,1.5580177,-0.037014354,0.39416936,-9.390678,1.664455,2.796541
451,2026-05-11 16:19:02.072892,1.5580177,-0.037014354,0.39416936,-9.390678,1.664455,2.796541
452,2026-05-11 16:19:02.075481,1.5580177,-0.037014354,0.39416936,-9.390678,1.664455,2.796541
453,2026-05-11 16:19:02.078175,1.5580177,-0.037014354,0.39416936,-9.390678,1.664455,2.796541
454,2026-05-11 16:19:02.080754,1.5580177,-0.037014354,0.39416936,-9.390678,1.664455,2.796541
455,2026-05-11 16:19:02.083722,1.5580177,-0.037014354,0.39416936,-9.390678,1.664455,2.796541
456,2026-05-11 16:19:02.086779,1.5580177,-0.037014354,0.39416936,-9.390678,1.664455,2.796541
457,2026-05-11 16:19:02.089522,1.5580177,-0.037014354,0.39416936,-9.390678,1.664455,2.796541
458,2026-05-11 16:19:02.092090,1.5580177,-0.037014354,0.39416936,-9.390678,1.664455,2.796541
459,2026-05-11 16:19:02.094881,1.5580177,-0.037014354,0.39416936,-9.390678,1.664455,2.796541
460,2026-05-11 16:19:02.097490,1.5580177,-0.037014354,0.39416936,-9.390678,1.664455,2.796541
461,2026-05-11 16:19:02.100032,1.5580177,-0.037014354,0.39416936,-9.390678,1.664455,2.796541
462,2026-05-11 16:19:02.103231,1.5580177,-0.037014354,0.39416936,-9.390678,1.664455,2.796541
463,2026-05-11 16:19:02.105980,1.5580177,-0.037014354,0.39416936,-9.390678,1.664455,2.796541
464,2026-05-11 16:19:02.108546,1.5580177,-0.037014354,0.39416936,-9.390678,1.664455,2.796541
465,2026-05-11 16:19:02.111313,1.5580177,-0.037014354,0.39416936,-9.390678,1.664455,2.796541
466,2026-05-11 16:19:02.114043,1.5580177,-0.037014354,0.39416936,-9.390678,1.664455,2.796541
467,2026-05-11 16:19:02.116754,1.5580177,-0.037014354,0.39416936,-9.390678,1.664455,2.796541
468,2026-05-11 16:19:02.119736,1.5580177,-0.037014354,0.39416936,-9.390678,1.664455,2.796541
469,2026-05-11 16:19:02.122455,1.5580177,-0.037014354,0.39416936,-9.390678,1.664455,2.796541
470,2026-05-11 16:19:02.125007,1.5580177,-0.037014354,0.39416936,-9.390678,1.664455,2.796541
471,2026-05-11 16:19:02.127742,1.5580177,-0.037014354,0.39416936,-9.390678,1.664455,2.796541
472,2026-05-11 16:19:02.130398,1.5580177,-0.037014354,0.39416936,-9.390678,1.664455,2.796541
473,2026-05-11 16:19:02.132965,1.5580177,-0.037014354,0.39416936,-9.390678,1.664455,2.796541
474,2026-05-11 16:19:02.136074,1.5580177,-0.037014354,0.39416936,-9.390678,1.664455,2.796541
475,2026-05-11 16:19:02.138784,1.5580177,-0.037014354,0.39416936,-9.390678,1.664455,2.796541
476,2026-05-11 16:19:02.141412,1.5580177,-0.037014354,0.39416936,-9.390678,1.664455,2.796541
477,2026-05-11 16:19:02.144155,1.5580177,-0.037014354,0.39416936,-9.390678,1.664455,2.796541
478,2026-05-11 16:19:02.146757,1.5580177,-0.037014354,0.39416936,-9.390678,1.664455,2.796541
479,2026-05-11 16:19:02.149475,1.5580177,-0.037014354,0.39416936,-9.390678,1.664455,2.796541
480,2026-05-11 16:19:02.152690,1.5580177,-0.037014354,0.39416936,-9.390678,1.664455,2.796541
481,2026-05-11 16:19:02.155550,1.5580177,-0.037014354,0.39416936,-9.390678,1.664455,2.796541
482,2026-05-11 16:19:02.158127,1.5580177,-0.037014354,0.39416936,-9.390678,1.664455,2.796541
483,2026-05-11 16:19:02.160706,1.5580177,-0.037014354,0.39416936,-9.390678,1.664455,2.796541
484,2026-05-11 16:19:02.163436,1.5580177,-0.037014354,0.39416936,-9.390678,1.664455,2.796541
485,2026-05-11 16:19:02.166010,1.5580177,-0.037014354,0.39416936,-9.390678,1.664455,2.796541
486,2026-05-11 16:19:02.168864,1.5580177,-0.037014354,0.39416936,-9.390678,1.664455,2.796541
487,2026-05-11 16:19:02.171837,1.5580177,-0.037014354,0.39416936,-9.390678,1.664455,2.796541
488,2026-05-11 16:19:02.174489,1.5580177,-0.037014354,0.39416936,-9.390678,1.664455,2.796541
489,2026-05-11 16:19:02.177225,1.5580177,-0.037014354,0.39416936,-9.390678,1.664455,2.796541
490,2026-05-11 16:19:02.179945,1.5580177,-0.037014354,0.39416936,-9.390678,1.664455,2.796541
491,2026-05-11 16:19:02.182829,1.5580177,-0.037014354,0.39416936,-9.390678,1.664455,2.796541
492,2026-05-11 16:19:02.186306,1.5580177,-0.037014354,0.39416936,-9.390678,1.664455,2.796541
493,2026-05-11 16:19:02.189099,1.5580177,-0.037014354,0.39416936,-9.390678,1.664455,2.796541
494,2026-05-11 16:19:02.191667,1.5580177,-0.037014354,0.39416936,-9.390678,1.664455,2.796541
495,2026-05-11 16:19:02.194417,1.5580177,-0.037014354,0.39416936,-9.390678,1.664455,2.796541
496,2026-05-11 16:19:02.196999,1.5580177,-0.037014354,0.39416936,-9.390678,1.664455,2.796541
497,2026-05-11 16:19:02.199638,1.5580177,-0.037014354,0.39416936,-9.390678,1.664455,2.796541
498,2026-05-11 16:19:02.202508,1.2195224,-0.07939488,0.77492326,-9.390678,1.664455,2.796541
499,2026-05-11 16:19:02.205612,1.2195224,-0.07939488,0.77492326,-9.390678,1.664455,2.796541
500,2026-05-11 16:19:02.208223,1.2195224,-0.07939488,0.77492326,-9.390678,1.664455,2.796541
501,2026-05-11 16:19:02.210818,1.2195224,-0.07939488,0.77492326,-9.390678,1.664455,2.796541
502,2026-05-11 16:19:02.213734,1.2195224,-0.07939488,0.77492326,-10.547047,2.3525949,2.428342
503,2026-05-11 16:19:02.216493,1.2195224,-0.07939488,0.77492326,-10.547047,2.3525949,2.428342
504,2026-05-11 16:19:02.219534,1.2195224,-0.07939488,0.77492326,-10.547047,2.3525949,2.428342
505,2026-05-11 16:19:02.222517,1.2195224,-0.07939488,0.77492326,-10.547047,2.3525949,2.428342
506,2026-05-11 16:19:02.225230,1.2195224,-0.07939488,0.77492326,-10.547047,2.3525949,2.428342
507,2026-05-11 16:19:02.227871,1.2195224,-0.07939488,0.77492326,-10.547047,2.3525949,2.428342
508,2026-05-11 16:19:02.230633,1.2195224,-0.07939488,0.77492326,-10.547047,2.3525949,2.428342
509,2026-05-11 16:19:02.233206,1.2195224,-0.07939488,0.77492326,-10.547047,2.3525949,2.428342
510,2026-05-11 16:19:02.236243,1.2195224,-0.07939488,0.77492326,-10.547047,2.3525949,2.428342
511,2026-05-11 16:19:02.238943,1.2195224,-0.07939488,0.77492326,-10.547047,2.3525949,2.428342
512,2026-05-11 16:19:02.241785,1.2195224,-0.07939488,0.77492326,-10.547047,2.3525949,2.428342
513,2026-05-11 16:19:02.244512,1.2195224,-0.07939488,0.77492326,-10.547047,2.3525949,2.428342
514,2026-05-11 16:19:02.247157,1.2195224,-0.07939488,0.77492326,-10.547047,2.3525949,2.428342
515,2026-05-11 16:19:02.249845,1.2195224,-0.07939488,0.77492326,-10.547047,2.3525949,2.428342
516,2026-05-11 16:19:02.252823,1.2195224,-0.07939488,0.77492326,-10.547047,2.3525949,2.428342
517,2026-05-11 16:19:02.255627,1.2195224,-0.07939488,0.77492326,-10.547047,2.3525949,2.428342
518,2026-05-11 16:19:02.258214,1.2195224,-0.07939488,0.77492326,-10.547047,2.3525949,2.428342
519,2026-05-11 16:19:02.261102,1.027499,-0.032623854,1.0863439,-10.813842,2.4326181,2.3429737
520,2026-05-11 16:19:02.263763,1.027499,-0.032623854,1.0863439,-10.813842,2.4326181,2.3429737
521,2026-05-11 16:19:02.266346,1.027499,-0.032623854,1.0863439,-10.813842,2.4326181,2.3429737
522,2026-05-11 16:19:02.269247,1.027499,-0.032623854,1.0863439,-10.813842,2.4326181,2.3429737
523,2026-05-11 16:19:02.272329,1.027499,-0.032623854,1.0863439,-10.813842,2.4326181,2.3429737
524,2026-05-11 16:19:02.275062,1.4029477,0.3936815,1.9565775,-9.896934,1.2261592,2.262034
525,2026-05-11 16:19:02.277655,1.4029477,0.3936815,1.9565775,-9.896934,1.2261592,2.262034
526,2026-05-11 16:19:02.280481,1.4029477,0.3936815,1.9565775,-9.896934,1.2261592,2.262034
527,2026-05-11 16:19:02.283060,1.4029477,0.3936815,1.9565775,-9.896934,1.2261592,2.262034
528,2026-05-11 16:19:02.286107,1.4029477,0.3936815,1.9565775,-8.489958,-0.019394971,1.8901697
529,2026-05-11 16:19:02.289002,1.4029477,0.3936815,1.9565775,-8.489958,-0.019394971,1.8901697
530,2026-05-11 16:19:02.291617,1.4029477,0.3936815,1.9565775,-8.489958,-0.019394971,1.8901697
531,2026-05-11 16:19:02.294234,1.4029477,0.3936815,1.9565775,-8.489958,-0.019394971,1.8901697
532,2026-05-11 16:19:02.296832,1.4029477,0.3936815,1.9565775,-8.489958,-0.019394971,1.8901697
533,2026-05-11 16:19:02.299621,1.4029477,0.3936815,1.9565775,-8.489958,-0.019394971,1.8901697
534,2026-05-11 16:19:02.302620,1.8824269,0.85261077,2.3696504,-8.489958,-0.019394971,1.8901697
535,2026-05-11 16:19:02.305643,1.8824269,0.85261077,2.3696504,-8.489958,-0.019394971,1.8901697
536,2026-05-11 16:19:02.308392,2.871692,1.6100329,2.137076,-5.911954,-2.2165246,0.821461
537,2026-05-11 16:19:02.311033,2.871692,1.6100329,2.137076,-5.911954,-2.2165246,0.821461
538,2026-05-11 16:19:02.313692,2.871692,1.6100329,2.137076,-5.911954,-2.2165246,0.821461
539,2026-05-11 16:19:02.316248,2.871692,1.6100329,2.137076,-5.911954,-2.2165246,0.821461
540,2026-05-11 16:19:02.319272,2.871692,1.6100329,2.137076,-5.911954,-2.2165246,0.821461
541,2026-05-11 16:19:02.321993,2.871692,1.6100329,2.137076,-5.911954,-2.2165246,0.821461
542,2026-05-11 16:19:02.324603,2.871692,1.6100329,2.137076,-5.911954,-2.2165246,0.821461
543,2026-05-11 16:19:02.327396,2.871692,1.6100329,2.137076,-5.911954,-2.2165246,0.821461
544,2026-05-11 16:19:02.330143,2.871692,1.6100329,2.137076,-5.5448236,-2.7204883,0.1965459
545,2026-05-11 16:19:02.332765,2.871692,1.6100329,2.137076,-5.5448236,-2.7204883,0.1965459
546,2026-05-11 16:19:02.335409,2.871692,1.6100329,2.137076,-5.5448236,-2.7204883,0.1965459
547,2026-05-11 16:19:02.338569,2.871692,1.6100329,2.137076,-5.5448236,-2.7204883,0.1965459
548,2026-05-11 16:19:02.341404,2.871692,1.6100329,2.137076,-5.5448236,-2.7204883,0.1965459
549,2026-05-11 16:19:02.344022,2.871692,1.6100329,2.137076,-5.5448236,-2.7204883,0.1965459
550,2026-05-11 16:19:02.346775,3.26641,1.7833967,1.7068069,-5.5448236,-2.7204883,0.1965459
551,2026-05-11 16:19:02.349557,3.4295294,1.8605353,1.1929965,-5.5448236,-2.7204883,0.1965459
552,2026-05-11 16:19:02.352612,3.4295294,1.8605353,1.1929965,-5.5448236,-2.7204883,0.1965459
553,2026-05-11 16:19:02.355395,3.4295294,1.8605353,1.1929965,-5.5448236,-2.7204883,0.1965459
554,2026-05-11 16:19:02.358004,3.4295294,1.8605353,1.1929965,-5.5448236,-2.7204883,0.1965459
555,2026-05-11 16:19:02.360736,3.4295294,1.8605353,1.1929965,-5.5448236,-2.7204883,0.1965459
556,2026-05-11 16:19:02.363365,3.4295294,1.8605353,1.1929965,-6.2818327,-2.40574,-0.9419542
557,2026-05-11 16:19:02.366086,3.4295294,1.8605353,1.1929965,-6.2818327,-2.40574,-0.9419542
558,2026-05-11 16:19:02.368807,3.4295294,1.8605353,1.1929965,-6.2818327,-2.40574,-0.9419542
559,2026-05-11 16:19:02.372229,3.4295294,1.8605353,1.1929965,-6.2818327,-2.40574,-0.9419542
560,2026-05-11 16:19:02.375050,3.4295294,1.8605353,1.1929965,-6.2818327,-2.40574,-0.9419542
561,2026-05-11 16:19:02.377759,3.4295294,1.8605353,1.1929965,-6.2818327,-2.40574,-0.9419542
562,2026-05-11 16:19:02.380505,3.4295294,1.8605353,1.1929965,-6.2818327,-2.40574,-0.9419542
563,2026-05-11 16:19:02.383121,3.4295294,1.8605353,1.1929965,-6.2818327,-2.40574,-0.9419542
564,2026-05-11 16:19:02.386052,3.4295294,1.8605353,1.1929965,-6.2818327,-2.40574,-0.9419542
565,2026-05-11 16:19:02.389558,3.4295294,1.8605353,1.1929965,-6.2818327,-2.40574,-0.9419542
566,2026-05-11 16:19:02.392376,3.4295294,1.8605353,1.1929965,-6.2818327,-2.40574,-0.9419542
567,2026-05-11 16:19:02.395034,3.4295294,1.8605353,1.1929965,-6.2818327,-2.40574,-0.9419542
568,2026-05-11 16:19:02.397595,3.4295294,1.8605353,1.1929965,-6.2818327,-2.40574,-0.9419542
569,2026-05-11 16:19:02.400190,3.4295294,1.8605353,1.1929965,-6.2818327,-2.40574,-0.9419542
570,2026-05-11 16:19:02.403327,3.4295294,1.8605353,1.1929965,-6.2818327,-2.40574,-0.9419542
571,2026-05-11 16:19:02.406160,3.4295294,1.8605353,1.1929965,-6.2818327,-2.40574,-0.9419542
572,2026-05-11 16:19:02.408833,3.4295294,1.8605353,1.1929965,-6.2818327,-2.40574,-0.9419542
573,2026-05-11 16:19:02.411599,3.4295294,1.8605353,1.1929965,-6.2818327,-2.40574,-0.9419542
574,2026-05-11 16:19:02.414239,3.4295294,1.8605353,1.1929965,-6.2818327,-2.40574,-0.9419542
575,2026-05-11 16:19:02.416977,3.4295294,1.8605353,1.1929965,-6.2818327,-2.40574,-0.9419542
576,2026-05-11 16:19:02.419914,3.4295294,1.8605353,1.1929965,-7.967363,-0.86849767,-1.8356501
577,2026-05-11 16:19:02.422797,3.4295294,1.8605353,1.1929965,-7.967363,-0.86849767,-1.8356501
578,2026-05-11 16:19:02.425397,3.4295294,1.8605353,1.1929965,-7.967363,-0.86849767,-1.8356501
579,2026-05-11 16:19:02.428036,3.4188578,1.5886903,1.2161076,-7.967363,-0.86849767,-1.8356501
580,2026-05-11 16:19:02.430867,3.4188578,1.5886903,1.2161076,-7.967363,-0.86849767,-1.8356501
581,2026-05-11 16:19:02.433494,3.4188578,1.5886903,1.2161076,-7.967363,-0.86849767,-1.8356501
582,2026-05-11 16:19:02.436378,3.4188578,1.5886903,1.2161076,-7.967363,-0.86849767,-1.8356501
583,2026-05-11 16:19:02.439168,3.4188578,1.5886903,1.2161076,-7.967363,-0.86849767,-1.8356501
584,2026-05-11 16:19:02.441759,3.4188578,1.5886903,1.2161076,-7.967363,-0.86849767,-1.8356501
585,2026-05-11 16:19:02.444460,3.4188578,1.5886903,1.2161076,-7.967363,-0.86849767,-1.8356501
586,2026-05-11 16:19:02.447257,3.4188578,1.5886903,1.2161076,-7.967363,-0.86849767,-1.8356501
587,2026-05-11 16:19:02.450024,3.4188578,1.5886903,1.2161076,-7.967363,-0.86849767,-1.8356501
588,2026-05-11 16:19:02.452923,3.4188578,1.5886903,1.2161076,-7.967363,-0.86849767,-1.8356501
589,2026-05-11 16:19:02.455787,2.82486,1.3044664,1.7850431,-7.967363,-0.86849767,-1.8356501
590,2026-05-11 16:19:02.458534,2.82486,1.3044664,1.7850431,-7.967363,-0.86849767,-1.8356501
591,2026-05-11 16:19:02.461142,2.82486,1.3044664,1.7850431,-7.967363,-0.86849767,-1.8356501
592,2026-05-11 16:19:02.463887,2.82486,1.3044664,1.7850431,-7.967363,-0.86849767,-1.8356501
593,2026-05-11 16:19:02.466467,2.82486,1.3044664,1.7850431,-7.967363,-0.86849767,-1.8356501
594,2026-05-11 16:19:02.469372,2.82486,1.3044664,1.7850431,-7.967363,-0.86849767,-1.8356501
595,2026-05-11 16:19:02.472191,2.82486,1.3044664,1.7850431,-7.967363,-0.86849767,-1.8356501
596,2026-05-11 16:19:02.474771,2.82486,1.3044664,1.7850431,-7.967363,-0.86849767,-1.8356501
597,2026-05-11 16:19:02.477383,2.82486,1.3044664,1.7850431,-7.967363,-0.86849767,-1.8356501
598,2026-05-11 16:19:02.480145,2.82486,1.3044664,1.7850431,-7.967363,-0.86849767,-1.8356501
599,2026-05-11 16:19:02.482894,2.82486,1.3044664,1.7850431,-7.967363,-0.86849767,-1.8356501
600,2026-05-11 16:19:02.485781,2.82486,1.3044664,1.7850431,-7.967363,-0.86849767,-1.8356501
601,2026-05-11 16:19:02.489044,2.82486,1.3044664,1.7850431,-7.967363,-0.86849767,-1.8356501
602,2026-05-11 16:19:02.491743,2.82486,1.3044664,1.7850431,-7.967363,-0.86849767,-1.8356501
603,2026-05-11 16:19:02.494336,2.82486,1.3044664,1.7850431,-7.967363,-0.86849767,-1.8356501
604,2026-05-11 16:19:02.497094,2.82486,1.3044664,1.7850431,-7.967363,-0.86849767,-1.8356501
605,2026-05-11 16:19:02.499833,2.82486,1.3044664,1.7850431,-7.967363,-0.86849767,-1.8356501
606,2026-05-11 16:19:02.502785,2.82486,1.3044664,1.7850431,-7.967363,-0.86849767,-1.8356501
607,2026-05-11 16:19:02.505690,2.82486,1.3044664,1.7850431,-9.486737,0.81290895,-2.5607471
608,2026-05-11 16:19:02.508305,2.82486,1.3044664,1.7850431,-9.486737,0.81290895,-2.5607471
609,2026-05-11 16:19:02.510872,2.82486,1.3044664,1.7850431,-9.486737,0.81290895,-2.5607471
610,2026-05-11 16:19:02.513729,2.82486,1.3044664,1.7850431,-9.486737,0.81290895,-2.5607471
611,2026-05-11 16:19:02.516347,2.82486,1.3044664,1.7850431,-9.486737,0.81290895,-2.5607471
612,2026-05-11 16:19:02.519344,2.82486,1.3044664,1.7850431,-9.486737,0.81290895,-2.5607471
613,2026-05-11 16:19:02.522236,2.82486,1.3044664,1.7850431,-9.486737,0.81290895,-2.5607471
614,2026-05-11 16:19:02.524851,2.82486,1.3044664,1.7850431,-9.486737,0.81290895,-2.5607471
615,2026-05-11 16:19:02.527442,2.82486,1.3044664,1.7850431,-9.486737,0.81290895,-2.5607471
616,2026-05-11 16:19:02.530242,2.82486,1.3044664,1.7850431,-9.486737,0.81290895,-2.5607471
617,2026-05-11 16:19:02.532848,2.82486,1.3044664,1.7850431,-9.486737,0.81290895,-2.5607471
618,2026-05-11 16:19:02.535621,2.82486,1.3044664,1.7850431,-9.486737,0.81290895,-2.5607471
619,2026-05-11 16:19:02.538720,2.82486,1.3044664,1.7850431,-9.486737,0.81290895,-2.5607471
620,2026-05-11 16:19:02.541362,2.82486,1.3044664,1.7850431,-9.486737,0.81290895,-2.5607471
621,2026-05-11 16:19:02.543981,2.82486,1.3044664,1.7850431,-9.486737,0.81290895,-2.5607471
622,2026-05-11 16:19:02.546550,2.82486,1.3044664,1.7850431,-9.486737,0.81290895,-2.5607471
623,2026-05-11 16:19:02.549286,2.82486,1.3044664,1.7850431,-9.486737,0.81290895,-2.5607471
624,2026-05-11 16:19:02.552143,2.82486,1.3044664,1.7850431,-9.486737,0.81290895,-2.5607471
625,2026-05-11 16:19:02.555334,2.82486,1.3044664,1.7850431,-9.486737,0.81290895,-2.5607471
626,2026-05-11 16:19:02.558004,2.82486,1.3044664,1.7850431,-9.486737,0.81290895,-2.5607471
627,2026-05-11 16:19:02.560828,2.82486,1.3044664,1.7850431,-9.486737,0.81290895,-2.5607471
628,2026-05-11 16:19:02.563507,2.82486,1.3044664,1.7850431,-9.486737,0.81290895,-2.5607471
629,2026-05-11 16:19:02.566135,2.82486,1.3044664,1.7850431,-9.486737,0.81290895,-2.5607471
630,2026-05-11 16:19:02.568853,2.82486,1.3044664,1.7850431,-9.486737,0.81290895,-2.5607471
631,2026-05-11 16:19:02.572261,2.82486,1.3044664,1.7850431,-9.486737,0.81290895,-2.5607471
632,2026-05-11 16:19:02.574981,2.82486,1.3044664,1.7850431,-9.486737,0.81290895,-2.5607471
633,2026-05-11 16:19:02.577645,2.82486,1.3044664,1.7850431,-9.486737,0.81290895,-2.5607471
634,2026-05-11 16:19:02.580255,2.82486,1.3044664,1.7850431,-9.486737,0.81290895,-2.5607471
635,2026-05-11 16:19:02.583063,2.82486,1.3044664,1.7850431,-9.486737,0.81290895,-2.5607471
636,2026-05-11 16:19:02.586215,2.82486,1.3044664,1.7850431,-9.486737,0.81290895,-2.5607471
637,2026-05-11 16:19:02.589057,2.82486,1.3044664,1.7850431,-9.486737,0.81290895,-2.5607471
638,2026-05-11 16:19:02.591798,2.82486,1.3044664,1.7850431,-9.486737,0.81290895,-2.5607471
639,2026-05-11 16:19:02.594472,2.82486,1.3044664,1.7850431,-9.486737,0.81290895,-2.5607471
640,2026-05-11 16:19:02.597255,2.82486,1.3044664,1.7850431,-9.486737,0.81290895,-2.5607471
641,2026-05-11 16:19:02.599841,2.82486,1.3044664,1.7850431,-9.486737,0.81290895,-2.5607471
642,2026-05-11 16:19:02.602945,2.82486,1.3044664,1.7850431,-9.486737,0.81290895,-2.5607471
643,2026-05-11 16:19:02.605832,2.82486,1.3044664,1.7850431,-9.486737,0.81290895,-2.5607471
644,2026-05-11 16:19:02.608540,2.82486,1.3044664,1.7850431,-9.486737,0.81290895,-2.5607471
645,2026-05-11 16:19:02.611124,2.82486,1.3044664,1.7850431,-9.486737,0.81290895,-2.5607471
646,2026-05-11 16:19:02.613885,1.9911526,1.2212907,2.558503,-9.486737,0.81290895,-2.5607471
647,2026-05-11 16:19:02.616645,1.7745547,1.150433,3.4011743,-9.898613,1.3300064,-2.59633
648,2026-05-11 16:19:02.619639,1.7745547,1.150433,3.4011743,-9.898613,1.3300064,-2.59633
649,2026-05-11 16:19:02.622454,1.7745547,1.150433,3.4011743,-9.898613,1.3300064,-2.59633
650,2026-05-11 16:19:02.625050,1.7745547,1.150433,3.4011743,-9.898613,1.3300064,-2.59633
651,2026-05-11 16:19:02.627667,1.7745547,1.150433,3.4011743,-9.898613,1.3300064,-2.59633
652,2026-05-11 16:19:02.630480,1.7745547,1.150433,3.4011743,-9.898613,1.3300064,-2.59633
653,2026-05-11 16:19:02.633120,1.7745547,1.150433,3.4011743,-9.898613,1.3300064,-2.59633
654,2026-05-11 16:19:02.636326,1.7745547,1.150433,3.4011743,-9.898613,1.3300064,-2.59633
655,2026-05-11 16:19:02.639055,1.7745547,1.150433,3.4011743,-9.898613,1.3300064,-2.59633
656,2026-05-11 16:19:02.641658,1.7745547,1.150433,3.4011743,-9.898613,1.3300064,-2.59633
657,2026-05-11 16:19:02.644262,1.7745547,1.150433,3.4011743,-9.898613,1.3300064,-2.59633
658,2026-05-11 16:19:02.646825,1.7745547,1.150433,3.4011743,-9.898613,1.3300064,-2.59633
659,2026-05-11 16:19:02.649584,1.7745547,1.150433,3.4011743,-9.898613,1.3300064,-2.59633
660,2026-05-11 16:19:02.652507,1.7745547,1.150433,3.4011743,-9.898613,1.3300064,-2.59633
661,2026-05-11 16:19:02.655350,1.7745547,1.150433,3.4011743,-9.898613,1.3300064,-2.59633
662,2026-05-11 16:19:02.658150,1.7745547,1.150433,3.4011743,-9.898613,1.3300064,-2.59633
663,2026-05-11 16:19:02.660902,1.7745547,1.150433,3.4011743,-9.898613,1.3300064,-2.59633
664,2026-05-11 16:19:02.663757,1.7745547,1.150433,3.4011743,-9.204823,0.6068946,-1.8061758
665,2026-05-11 16:19:02.666489,1.7745547,1.150433,3.4011743,-9.204823,0.6068946,-1.8061758
666,2026-05-11 16:19:02.669539,1.7745547,1.150433,3.4011743,-9.204823,0.6068946,-1.8061758
667,2026-05-11 16:19:02.672381,1.7745547,1.150433,3.4011743,-9.204823,0.6068946,-1.8061758
668,2026-05-11 16:19:02.675142,1.7745547,1.150433,3.4011743,-9.204823,0.6068946,-1.8061758
669,2026-05-11 16:19:02.677748,1.7745547,1.150433,3.4011743,-9.204823,0.6068946,-1.8061758
670,2026-05-11 16:19:02.680529,1.7745547,1.150433,3.4011743,-9.204823,0.6068946,-1.8061758
671,2026-05-11 16:19:02.683201,1.6222898,1.4000207,3.977732,-8.366715,-0.15393804,-1.2281445
672,2026-05-11 16:19:02.686140,1.6222898,1.4000207,3.977732,-8.366715,-0.15393804,-1.2281445
673,2026-05-11 16:19:02.688918,1.6222898,1.4000207,3.977732,-8.366715,-0.15393804,-1.2281445
674,2026-05-11 16:19:02.691522,1.6222898,1.4000207,3.977732,-8.366715,-0.15393804,-1.2281445
675,2026-05-11 16:19:02.694102,1.6222898,1.4000207,3.977732,-8.366715,-0.15393804,-1.2281445
676,2026-05-11 16:19:02.696690,1.6222898,1.4000207,3.977732,-8.366715,-0.15393804,-1.2281445
677,2026-05-11 16:19:02.699432,1.6222898,1.4000207,3.977732,-8.366715,-0.15393804,-1.2281445
678,2026-05-11 16:19:02.702453,1.6222898,1.4000207,3.977732,-8.366715,-0.15393804,-1.2281445
679,2026-05-11 16:19:02.705366,1.6222898,1.4000207,3.977732,-8.366715,-0.15393804,-1.2281445
680,2026-05-11 16:19:02.707976,1.6222898,1.4000207,3.977732,-8.366715,-0.15393804,-1.2281445
681,2026-05-11 16:19:02.710567,1.6222898,1.4000207,3.977732,-8.366715,-0.15393804,-1.2281445
682,2026-05-11 16:19:02.713279,1.6222898,1.4000207,3.977732,-8.366715,-0.15393804,-1.2281445
683,2026-05-11 16:19:02.715956,1.6222898,1.4000207,3.977732,-8.366715,-0.15393804,-1.2281445
684,2026-05-11 16:19:02.718610,1.6222898,1.4000207,3.977732,-8.366715,-0.15393804,-1.2281445
685,2026-05-11 16:19:02.721942,1.6222898,1.4000207,3.977732,-5.10607,-1.4585935,0.43020186
686,2026-05-11 16:19:02.724704,1.6222898,1.4000207,3.977732,-5.10607,-1.4585935,0.43020186
687,2026-05-11 16:19:02.727290,1.6222898,1.4000207,3.977732,-5.10607,-1.4585935,0.43020186
688,2026-05-11 16:19:02.729889,1.6222898,1.4000207,3.977732,-5.10607,-1.4585935,0.43020186
689,2026-05-11 16:19:02.732750,1.6222898,1.4000207,3.977732,-5.10607,-1.4585935,0.43020186
690,2026-05-11 16:19:02.736054,1.4833792,2.4481306,5.3884854,-5.10607,-1.4585935,0.43020186
691,2026-05-11 16:19:02.739762,1.4833792,2.4481306,5.3884854,-5.10607,-1.4585935,0.43020186
692,2026-05-11 16:19:02.742532,1.4833792,2.4481306,5.3884854,-5.10607,-1.4585935,0.43020186
693,2026-05-11 16:19:02.745139,1.4833792,2.4481306,5.3884854,-5.10607,-1.4585935,0.43020186
694,2026-05-11 16:19:02.747939,1.4833792,2.4481306,5.3884854,-5.10607,-1.4585935,0.43020186
695,2026-05-11 16:19:02.750703,1.4833792,2.4481306,5.3884854,-5.10607,-1.4585935,0.43020186
696,2026-05-11 16:19:02.753970,1.4833792,2.4481306,5.3884854,-5.10607,-1.4585935,0.43020186
697,2026-05-11 16:19:02.756878,1.4833792,2.4481306,5.3884854,-5.10607,-1.4585935,0.43020186
698,2026-05-11 16:19:02.759593,1.4833792,2.4481306,5.3884854,-5.10607,-1.4585935,0.43020186
699,2026-05-11 16:19:02.762195,1.4833792,2.4481306,5.3884854,-5.10607,-1.4585935,0.43020186
700,2026-05-11 16:19:02.764918,1.4833792,2.4481306,5.3884854,-5.10607,-1.4585935,0.43020186
701,2026-05-11 16:19:02.767523,1.4833792,2.4481306,5.3884854,-5.10607,-1.4585935,0.43020186
702,2026-05-11 16:19:02.770475,1.4833792,2.4481306,5.3884854,-5.10607,-1.4585935,0.43020186
703,2026-05-11 16:19:02.773182,1.4833792,2.4481306,5.3884854,-5.10607,-1.4585935,0.43020186
704,2026-05-11 16:19:02.775918,1.4833792,2.4481306,5.3884854,-5.10607,-1.4585935,0.43020186
705,2026-05-11 16:19:02.778524,1.4833792,2.4481306,5.3884854,-5.10607,-1.4585935,0.43020186
706,2026-05-11 16:19:02.781270,1.4833792,2.4481306,5.3884854,-5.10607,-1.4585935,0.43020186
707,2026-05-11 16:19:02.783971,1.4833792,2.4481306,5.3884854,-5.10607,-1.4585935,0.43020186
708,2026-05-11 16:19:02.787133,1.4833792,2.4481306,5.3884854,-5.10607,-1.4585935,0.43020186
709,2026-05-11 16:19:02.789967,1.4833792,2.4481306,5.3884854,-5.10607,-1.4585935,0.43020186
710,2026-05-11 16:19:02.792707,1.4833792,2.4481306,5.3884854,-5.10607,-1.4585935,0.43020186
711,2026-05-11 16:19:02.795665,4.273481,3.5434995,6.255487,-2.330451,-1.984243,1.1007792
712,2026-05-11 16:19:02.798446,5.2297564,3.1673799,5.7758245,1.3278683,-2.0387628,0.5856671
713,2026-05-11 16:19:02.801158,5.2297564,3.1673799,5.7758245,1.3278683,-2.0387628,0.5856671
714,2026-05-11 16:19:02.804321,5.2297564,3.1673799,5.7758245,1.3278683,-2.0387628,0.5856671
715,2026-05-11 16:19:02.807201,5.2297564,3.1673799,5.7758245,5.9545617,-1.8872682,-2.598926
716,2026-05-11 16:19:02.809950,5.2297564,3.1673799,5.7758245,5.9545617,-1.8872682,-2.598926
717,2026-05-11 16:19:02.812555,5.2297564,3.1673799,5.7758245,5.9545617,-1.8872682,-2.598926
718,2026-05-11 16:19:02.815192,5.2297564,3.1673799,5.7758245,5.9545617,-1.8872682,-2.598926
719,2026-05-11 16:19:02.817888,5.2297564,3.1673799,5.7758245,5.9545617,-1.8872682,-2.598926
720,2026-05-11 16:19:02.821179,5.2297564,3.1673799,5.7758245,5.9545617,-1.8872682,-2.598926
721,2026-05-11 16:19:02.823974,5.2297564,3.1673799,5.7758245,5.9545617,-1.8872682,-2.598926
722,2026-05-11 16:19:02.826759,5.2297564,3.1673799,5.7758245,5.9545617,-1.8872682,-2.598926
723,2026-05-11 16:19:02.829344,5.2297564,3.1673799,5.7758245,5.9545617,-1.8872682,-2.598926
724,2026-05-11 16:19:02.832213,5.4315367,2.4626436,4.9684606,5.9545617,-1.8872682,-2.598926
725,2026-05-11 16:19:02.835369,4.2437234,1.147628,3.146647,7.0249505,-2.0570886,-5.4166946
726,2026-05-11 16:19:02.838157,4.2437234,1.147628,3.146647,7.0249505,-2.0570886,-5.4166946
727,2026-05-11 16:19:02.840740,4.2437234,1.147628,3.146647,7.0249505,-2.0570886,-5.4166946
728,2026-05-11 16:19:02.843684,4.0359063,1.071221,2.929927,7.0249505,-2.0570886,-5.4166946
729,2026-05-11 16:19:02.846493,2.2354963,0.8462689,1.8223624,3.1213686,-0.05497787,-5.237253
730,2026-05-11 16:19:02.849174,2.2354963,0.8462689,1.8223624,3.1213686,-0.05497787,-5.237253
731,2026-05-11 16:19:02.851970,2.2354963,0.8462689,1.8223624,3.1213686,-0.05497787,-5.237253
732,2026-05-11 16:19:02.855107,2.2354963,0.8462689,1.8223624,1.4694363,1.0920744,-4.867069
733,2026-05-11 16:19:02.857891,2.2354963,0.8462689,1.8223624,1.4694363,1.0920744,-4.867069
734,2026-05-11 16:19:02.860627,2.0185935,0.8619405,1.9495649,1.4694363,1.0920744,-4.867069
735,2026-05-11 16:19:02.863237,2.0185935,0.8619405,1.9495649,1.4694363,1.0920744,-4.867069
736,2026-05-11 16:19:02.865873,2.0185935,0.8619405,1.9495649,1.4694363,1.0920744,-4.867069
737,2026-05-11 16:19:02.868592,2.0185935,0.8619405,1.9495649,1.4694363,1.0920744,-4.867069
738,2026-05-11 16:19:02.871864,2.0185935,0.8619405,1.9495649,1.4694363,1.0920744,-4.867069
739,2026-05-11 16:19:02.874717,2.0185935,0.8619405,1.9495649,1.4694363,1.0920744,-4.867069
740,2026-05-11 16:19:02.877360,2.0185935,0.8619405,1.9495649,1.4694363,1.0920744,-4.867069
741,2026-05-11 16:19:02.880007,2.0185935,0.8619405,1.9495649,1.4694363,1.0920744,-4.867069
742,2026-05-11 16:19:02.882918,1.7304667,0.81151074,3.117255,1.7939585,1.6471981,-4.2858305
743,2026-05-11 16:19:02.885926,1.7304667,0.81151074,3.117255,1.7939585,1.6471981,-4.2858305
744,2026-05-11 16:19:02.888746,1.3889225,0.646745,4.009807,1.7939585,1.6471981,-4.2858305
745,2026-05-11 16:19:02.891574,1.3889225,0.646745,4.009807,1.7939585,1.6471981,-4.2858305
746,2026-05-11 16:19:02.894192,1.3889225,0.646745,4.009807,1.7939585,1.6471981,-4.2858305
747,2026-05-11 16:19:02.896948,1.3889225,0.646745,4.009807,1.7939585,1.6471981,-4.2858305
748,2026-05-11 16:19:02.899577,1.3889225,0.646745,4.009807,1.7939585,1.6471981,-4.2858305
749,2026-05-11 16:19:02.902321,1.3889225,0.646745,4.009807,1.7939585,1.6471981,-4.2858305
750,2026-05-11 16:19:02.905504,1.3889225,0.646745,4.009807,1.7939585,1.6471981,-4.2858305
751,2026-05-11 16:19:02.908070,1.3889225,0.646745,4.009807,1.7939585,1.6471981,-4.2858305
752,2026-05-11 16:19:02.910777,1.3889225,0.646745,4.009807,1.7939585,1.6471981,-4.2858305
753,2026-05-11 16:19:02.913361,1.3889225,0.646745,4.009807,1.7939585,1.6471981,-4.2858305
754,2026-05-11 16:19:02.915924,1.3889225,0.646745,4.009807,1.7939585,1.6471981,-4.2858305
755,2026-05-11 16:19:02.918472,1.3889225,0.646745,4.009807,1.7939585,1.6471981,-4.2858305
756,2026-05-11 16:19:02.921752,1.3889225,0.646745,4.009807,1.7939585,1.6471981,-4.2858305
757,2026-05-11 16:19:02.924412,1.3889225,0.646745,4.009807,1.7939585,1.6471981,-4.2858305
758,2026-05-11 16:19:02.927005,1.3889225,0.646745,4.009807,1.7939585,1.6471981,-4.2858305
759,2026-05-11 16:19:02.929688,1.3889225,0.646745,4.009807,1.7939585,1.6471981,-4.2858305
760,2026-05-11 16:19:02.932285,1.3889225,0.646745,4.009807,1.7939585,1.6471981,-4.2858305
761,2026-05-11 16:19:02.934818,1.3889225,0.646745,4.009807,1.7939585,1.6471981,-4.2858305
762,2026-05-11 16:19:02.937855,1.3889225,0.646745,4.009807,1.7939585,1.6471981,-4.2858305
763,2026-05-11 16:19:02.940577,1.3889225,0.646745,4.009807,1.7939585,1.6471981,-4.2858305
764,2026-05-11 16:19:02.943208,1.3889225,0.646745,4.009807,1.7939585,1.6471981,-4.2858305
765,2026-05-11 16:19:02.945873,1.3889225,0.646745,4.009807,1.7939585,1.6471981,-4.2858305
766,2026-05-11 16:19:02.948445,1.3889225,0.646745,4.009807,1.7939585,1.6471981,-4.2858305
767,2026-05-11 16:19:02.951022,1.3889225,0.646745,4.009807,1.7939585,1.6471981,-4.2858305
768,2026-05-11 16:19:02.960487,1.3889225,0.646745,4.009807,1.7939585,1.6471981,-4.2858305
769,2026-05-11 16:19:02.982786,2.4445329,2.1590283,1.87639,-1.3539828,-0.60139686,-5.1844134
770,2026-05-11 16:19:02.992010,2.0501196,1.7102216,2.2518997,-0.24740042,-0.6786713,-5.513517
771,2026-05-11 16:19:02.995084,2.0501196,1.7102216,2.2518997,-0.24740042,-0.6786713,-5.513517
772,2026-05-11 16:19:02.997763,2.0501196,1.7102216,2.2518997,-0.24740042,-0.6786713,-5.513517
773,2026-05-11 16:19:03.000431,2.0501196,1.7102216,2.2518997,-0.24740042,-0.6786713,-5.513517
774,2026-05-11 16:19:03.003515,2.0501196,1.7102216,2.2518997,-0.24740042,-0.6786713,-5.513517
775,2026-05-11 16:19:03.006467,2.0501196,1.7102216,2.2518997,-0.24740042,-0.6786713,-5.513517
776,2026-05-11 16:19:03.009097,2.0501196,1.7102216,2.2518997,-0.24740042,-0.6786713,-5.513517
777,2026-05-11 16:19:03.012037,2.0501196,1.7102216,2.2518997,-0.24740042,-0.6786713,-5.513517
778,2026-05-11 16:19:03.014671,2.0501196,1.7102216,2.2518997,-0.24740042,-0.6786713,-5.513517
779,2026-05-11 16:19:03.017271,2.0501196,1.7102216,2.2518997,-0.24740042,-0.6786713,-5.513517
780,2026-05-11 16:19:03.020478,2.0501196,1.7102216,2.2518997,-0.24740042,-0.6786713,-5.513517
781,2026-05-11 16:19:03.023253,2.0501196,1.7102216,2.2518997,-0.24740042,-0.6786713,-5.513517
782,2026-05-11 16:19:03.026077,2.0501196,1.7102216,2.2518997,-0.24740042,-0.6786713,-5.513517
783,2026-05-11 16:19:03.028839,2.0501196,1.7102216,2.2518997,-0.24740042,-0.6786713,-5.513517
784,2026-05-11 16:19:03.031651,2.0501196,1.7102216,2.2518997,-0.24740042,-0.6786713,-5.513517
785,2026-05-11 16:19:03.034369,2.0501196,1.7102216,2.2518997,-0.24740042,-0.6786713,-5.513517
786,2026-05-11 16:19:03.037344,2.0501196,1.7102216,2.2518997,-0.24740042,-0.6786713,-5.513517
787,2026-05-11 16:19:03.040309,1.8300457,1.4094115,2.320806,0.79519385,-0.5833763,-5.6442423
788,2026-05-11 16:19:03.043083,1.7658348,1.244036,2.283609,0.79519385,-0.5833763,-5.6442423
789,2026-05-11 16:19:03.045843,1.701075,0.9118215,2.285865,2.3758078,-0.31322116,-5.809787
790,2026-05-11 16:19:03.048462,1.701075,0.9118215,2.285865,2.3758078,-0.31322116,-5.809787
791,2026-05-11 16:19:03.051049,1.701075,0.9118215,2.285865,2.3758078,-0.31322116,-5.809787
792,2026-05-11 16:19:03.054100,1.701075,0.9118215,2.285865,2.3758078,-0.31322116,-5.809787
793,2026-05-11 16:19:03.056831,1.701075,0.9118215,2.285865,2.3758078,-0.31322116,-5.809787
794,2026-05-11 16:19:03.059469,1.701075,0.9118215,2.285865,2.3758078,-0.31322116,-5.809787
795,2026-05-11 16:19:03.062159,1.701075,0.9118215,2.285865,2.3758078,-0.31322116,-5.809787
796,2026-05-11 16:19:03.064735,1.701075,0.9118215,2.285865,2.3758078,-0.31322116,-5.809787
797,2026-05-11 16:19:03.067529,1.6561941,0.6816861,2.335685,3.1309898,-0.39522982,-5.948911
798,2026-05-11 16:19:03.070564,1.6561941,0.6816861,2.335685,3.1309898,-0.39522982,-5.948911
799,2026-05-11 16:19:03.073356,1.6561941,0.6816861,2.335685,3.1309898,-0.39522982,-5.948911
800,2026-05-11 16:19:03.076014,1.6561941,0.6816861,2.335685,3.1309898,-0.39522982,-5.948911
801,2026-05-11 16:19:03.078597,1.6561941,0.6816861,2.335685,3.1309898,-0.39522982,-5.948911
802,2026-05-11 16:19:03.081374,1.6561941,0.6816861,2.335685,4.348902,-0.72234815,-6.0865088
803,2026-05-11 16:19:03.083952,1.6561941,0.6816861,2.335685,4.348902,-0.72234815,-6.0865088
804,2026-05-11 16:19:03.086928,1.6561941,0.6816861,2.335685,4.348902,-0.72234815,-6.0865088
805,2026-05-11 16:19:03.089595,1.6561941,0.6816861,2.335685,4.348902,-0.72234815,-6.0865088
806,2026-05-11 16:19:03.092155,1.6561941,0.6816861,2.335685,4.348902,-0.72234815,-6.0865088
807,2026-05-11 16:19:03.094962,1.6561941,0.6816861,2.335685,4.348902,-0.72234815,-6.0865088
808,2026-05-11 16:19:03.097593,1.6561941,0.6816861,2.335685,4.348902,-0.72234815,-6.0865088
809,2026-05-11 16:19:03.100187,1.6561941,0.6816861,2.335685,4.348902,-0.72234815,-6.0865088
810,2026-05-11 16:19:03.103507,1.493014,0.30483487,2.2843406,4.348902,-0.72234815,-6.0865088
811,2026-05-11 16:19:03.106226,1.493014,0.30483487,2.2843406,4.348902,-0.72234815,-6.0865088
812,2026-05-11 16:19:03.108876,1.4313639,0.10342067,2.1910424,4.348902,-0.72234815,-6.0865088
813,2026-05-11 16:19:03.111750,1.4313639,0.10342067,2.1910424,4.348902,-0.72234815,-6.0865088
814,2026-05-11 16:19:03.114487,1.4313639,0.10342067,2.1910424,5.0384164,-0.8688031,-6.1248403
815,2026-05-11 16:19:03.117244,1.4313639,0.10342067,2.1910424,5.0384164,-0.8688031,-6.1248403
816,2026-05-11 16:19:03.120517,1.4313639,0.10342067,2.1910424,5.0384164,-0.8688031,-6.1248403
817,2026-05-11 16:19:03.123313,1.4313639,0.10342067,2.1910424,5.0384164,-0.8688031,-6.1248403
818,2026-05-11 16:19:03.126045,1.4313639,0.10342067,2.1910424,5.0384164,-0.8688031,-6.1248403
819,2026-05-11 16:19:03.128851,1.4313639,0.10342067,2.1910424,5.0384164,-0.8688031,-6.1248403
820,2026-05-11 16:19:03.131818,1.4313639,0.10342067,2.1910424,5.671426,-0.88315845,-6.192341
821,2026-05-11 16:19:03.135322,1.3402001,-0.14360595,2.0016413,5.671426,-0.88315845,-6.192341
822,2026-05-11 16:19:03.139417,1.3402001,-0.14360595,2.0016413,5.671426,-0.88315845,-6.192341
823,2026-05-11 16:19:03.142350,1.3402001,-0.14360595,2.0016413,5.671426,-0.88315845,-6.192341
824,2026-05-11 16:19:03.145206,1.3402001,-0.14360595,2.0016413,5.671426,-0.88315845,-6.192341
825,2026-05-11 16:19:03.148226,1.3402001,-0.14360595,2.0016413,5.671426,-0.88315845,-6.192341
826,2026-05-11 16:19:03.151348,1.3028809,-0.30623737,1.7205882,5.671426,-0.88315845,-6.192341
827,2026-05-11 16:19:03.155420,1.3028809,-0.30623737,1.7205882,5.930738,-0.63224554,-6.157369
828,2026-05-11 16:19:03.158579,1.3028809,-0.30623737,1.7205882,5.867208,-0.35979962,-6.0886464
829,2026-05-11 16:19:03.161457,1.3028809,-0.30623737,1.7205882,5.867208,-0.35979962,-6.0886464
830,2026-05-11 16:19:03.164438,1.3028809,-0.30623737,1.7205882,5.867208,-0.35979962,-6.0886464
831,2026-05-11 16:19:03.167149,1.3028809,-0.30623737,1.7205882,5.867208,-0.35979962,-6.0886464
832,2026-05-11 16:19:03.170435,1.2808673,-0.39203507,1.5328333,5.867208,-0.35979962,-6.0886464
833,2026-05-11 16:19:03.173178,1.2808673,-0.39203507,1.5328333,5.867208,-0.35979962,-6.0886464
834,2026-05-11 16:19:03.175950,1.2808673,-0.39203507,1.5328333,5.867208,-0.35979962,-6.0886464
835,2026-05-11 16:19:03.178617,1.3161743,-0.24891695,1.43112,5.4814467,-0.6020077,-5.76779
836,2026-05-11 16:19:03.181240,1.3161743,-0.24891695,1.43112,5.4814467,-0.6020077,-5.76779
837,2026-05-11 16:19:03.184146,1.3161743,-0.24891695,1.43112,5.4814467,-0.6020077,-5.76779
838,2026-05-11 16:19:03.187258,1.3161743,-0.24891695,1.43112,5.4814467,-0.6020077,-5.76779
839,2026-05-11 16:19:03.190085,1.3161743,-0.24891695,1.43112,5.4814467,-0.6020077,-5.76779
840,2026-05-11 16:19:03.192876,1.7655299,0.07500438,1.3773364,4.96496,-1.1899655,-5.622251
841,2026-05-11 16:19:03.195480,1.7655299,0.07500438,1.3773364,4.96496,-1.1899655,-5.622251
842,2026-05-11 16:19:03.198167,1.7655299,0.07500438,1.3773364,4.96496,-1.1899655,-5.622251
843,2026-05-11 16:19:03.200942,1.7655299,0.07500438,1.3773364,4.96496,-1.1899655,-5.622251
844,2026-05-11 16:19:03.204680,1.7655299,0.07500438,1.3773364,4.96496,-1.1899655,-5.622251
845,2026-05-11 16:19:03.207590,1.7655299,0.07500438,1.3773364,4.96496,-1.1899655,-5.622251
846,2026-05-11 16:19:03.210433,1.7655299,0.07500438,1.3773364,4.96496,-1.1899655,-5.622251
847,2026-05-11 16:19:03.213131,1.7655299,0.07500438,1.3773364,4.96496,-1.1899655,-5.622251
848,2026-05-11 16:19:03.215965,1.7655299,0.07500438,1.3773364,4.96496,-1.1899655,-5.622251
849,2026-05-11 16:19:03.218677,1.7655299,0.07500438,1.3773364,4.96496,-1.1899655,-5.622251
850,2026-05-11 16:19:03.221964,1.7655299,0.07500438,1.3773364,4.96496,-1.1899655,-5.622251
851,2026-05-11 16:19:03.224660,1.7655299,0.07500438,1.3773364,4.96496,-1.1899655,-5.622251
852,2026-05-11 16:19:03.227557,1.7655299,0.07500438,1.3773364,4.96496,-1.1899655,-5.622251
853,2026-05-11 16:19:03.230318,1.7655299,0.07500438,1.3773364,3.6771033,-1.4598153,-5.6650114
854,2026-05-11 16:19:03.232950,1.7655299,0.07500438,1.3773364,3.6771033,-1.4598153,-5.6650114
855,2026-05-11 16:19:03.235948,1.7655299,0.07500438,1.3773364,3.6771033,-1.4598153,-5.6650114
856,2026-05-11 16:19:03.238976,1.7655299,0.07500438,1.3773364,3.6771033,-1.4598153,-5.6650114
857,2026-05-11 16:19:03.241783,1.7655299,0.07500438,1.3773364,3.6771033,-1.4598153,-5.6650114
858,2026-05-11 16:19:03.244621,1.7655299,0.07500438,1.3773364,3.6771033,-1.4598153,-5.6650114
859,2026-05-11 16:19:03.247261,1.7655299,0.07500438,1.3773364,3.6771033,-1.4598153,-5.6650114
860,2026-05-11 16:19:03.250019,1.7655299,0.07500438,1.3773364,3.6771033,-1.4598153,-5.6650114
861,2026-05-11 16:19:03.253006,1.7655299,0.07500438,1.3773364,3.6771033,-1.4598153,-5.6650114
862,2026-05-11 16:19:03.255766,1.7655299,0.07500438,1.3773364,3.6771033,-1.4598153,-5.6650114
863,2026-05-11 16:19:03.258404,1.7655299,0.07500438,1.3773364,3.6771033,-1.4598153,-5.6650114
864,2026-05-11 16:19:03.260975,1.7655299,0.07500438,1.3773364,3.6771033,-1.4598153,-5.6650114
865,2026-05-11 16:19:03.263676,1.7655299,0.07500438,1.3773364,3.6771033,-1.4598153,-5.6650114
866,2026-05-11 16:19:03.266248,1.7655299,0.07500438,1.3773364,3.6771033,-1.4598153,-5.6650114
867,2026-05-11 16:19:03.269288,1.7655299,0.07500438,1.3773364,3.6771033,-1.4598153,-5.6650114
868,2026-05-11 16:19:03.272021,1.9964579,0.14561825,1.5386264,3.6771033,-1.4598153,-5.6650114
869,2026-05-11 16:19:03.274580,1.9964579,0.14561825,1.5386264,3.6771033,-1.4598153,-5.6650114
870,2026-05-11 16:19:03.277454,1.9964579,0.14561825,1.5386264,3.6771033,-1.4598153,-5.6650114
871,2026-05-11 16:19:03.280060,1.9964579,0.14561825,1.5386264,3.6771033,-1.4598153,-5.6650114
872,2026-05-11 16:19:03.282666,1.9964579,0.14561825,1.5386264,3.6771033,-1.4598153,-5.6650114
873,2026-05-11 16:19:03.285747,1.9964579,0.14561825,1.5386264,3.6771033,-1.4598153,-5.6650114
874,2026-05-11 16:19:03.288633,1.9964579,0.14561825,1.5386264,3.6771033,-1.4598153,-5.6650114
875,2026-05-11 16:19:03.291320,1.9964579,0.14561825,1.5386264,3.6771033,-1.4598153,-5.6650114
876,2026-05-11 16:19:03.293937,1.9964579,0.14561825,1.5386264,3.6771033,-1.4598153,-5.6650114
877,2026-05-11 16:19:03.296589,2.49106,0.08573671,2.0613399,3.6771033,-1.4598153,-5.6650114
878,2026-05-11 16:19:03.299164,2.49106,0.08573671,2.0613399,3.6771033,-1.4598153,-5.6650114
879,2026-05-11 16:19:03.302384,2.49106,0.08573671,2.0613399,3.6771033,-1.4598153,-5.6650114
880,2026-05-11 16:19:03.305130,2.49106,0.08573671,2.0613399,3.6771033,-1.4598153,-5.6650114
881,2026-05-11 16:19:03.307820,2.49106,0.08573671,2.0613399,3.6771033,-1.4598153,-5.6650114
882,2026-05-11 16:19:03.310453,2.49106,0.08573671,2.0613399,3.6771033,-1.4598153,-5.6650114
883,2026-05-11 16:19:03.313019,2.49106,0.08573671,2.0613399,3.6771033,-1.4598153,-5.6650114
884,2026-05-11 16:19:03.315684,2.49106,0.08573671,2.0613399,3.6771033,-1.4598153,-5.6650114
885,2026-05-11 16:19:03.318242,2.49106,0.08573671,2.0613399,3.6771033,-1.4598153,-5.6650114
886,2026-05-11 16:19:03.321339,2.49106,0.08573671,2.0613399,3.6771033,-1.4598153,-5.6650114
887,2026-05-11 16:19:03.324121,2.49106,0.08573671,2.0613399,3.6771033,-1.4598153,-5.6650114
888,2026-05-11 16:19:03.326734,2.49106,0.08573671,2.0613399,3.6771033,-1.4598153,-5.6650114
889,2026-05-11 16:19:03.329306,2.49106,0.08573671,2.0613399,3.6771033,-1.4598153,-5.6650114
890,2026-05-11 16:19:03.332076,2.49106,0.08573671,2.0613399,3.6771033,-1.4598153,-5.6650114
891,2026-05-11 16:19:03.335062,2.49106,0.08573671,2.0613399,3.6771033,-1.4598153,-5.6650114
892,2026-05-11 16:19:03.338146,2.49106,0.08573671,2.0613399,2.9093986,-0.52122074,-6.0828433
893,2026-05-11 16:19:03.340840,2.49106,0.08573671,2.0613399,2.9093986,-0.52122074,-6.0828433
894,2026-05-11 16:19:03.343623,2.49106,0.08573671,2.0613399,2.9093986,-0.52122074,-6.0828433
895,2026-05-11 16:19:03.346347,2.49106,0.08573671,2.0613399,2.9093986,-0.52122074,-6.0828433
896,2026-05-11 16:19:03.348934,2.49106,0.08573671,2.0613399,2.9093986,-0.52122074,-6.0828433
897,2026-05-11 16:19:03.352076,2.49106,0.08573671,2.0613399,2.9093986,-0.52122074,-6.0828433
898,2026-05-11 16:19:03.355018,2.49106,0.08573671,2.0613399,2.9093986,-0.52122074,-6.0828433
899,2026-05-11 16:19:03.357877,2.49106,0.08573671,2.0613399,2.9093986,-0.52122074,-6.0828433
900,2026-05-11 16:19:03.360547,2.49106,0.08573671,2.0613399,2.9093986,-0.52122074,-6.0828433
901,2026-05-11 16:19:03.363224,2.49106,0.08573671,2.0613399,2.9093986,-0.52122074,-6.0828433
902,2026-05-11 16:19:03.365931,2.49106,0.08573671,2.0613399,2.9093986,-0.52122074,-6.0828433
903,2026-05-11 16:19:03.369033,2.49106,0.08573671,2.0613399,2.9093986,-0.52122074,-6.0828433
904,2026-05-11 16:19:03.371894,2.49106,0.08573671,2.0613399,2.9093986,-0.52122074,-6.0828433
905,2026-05-11 16:19:03.374511,2.49106,0.08573671,2.0613399,2.9093986,-0.52122074,-6.0828433
906,2026-05-11 16:19:03.377092,2.49106,0.08573671,2.0613399,2.9093986,-0.52122074,-6.0828433
907,2026-05-11 16:19:03.379864,2.49106,0.08573671,2.0613399,2.8232665,0.66966105,-6.660722
908,2026-05-11 16:19:03.382494,2.49106,0.08573671,2.0613399,2.8232665,0.66966105,-6.660722
909,2026-05-11 16:19:03.385099,2.49106,0.08573671,2.0613399,2.8232665,0.66966105,-6.660722
910,2026-05-11 16:19:03.388339,2.49106,0.08573671,2.0613399,2.8232665,0.66966105,-6.660722
911,2026-05-11 16:19:03.391028,2.49106,0.08573671,2.0613399,2.8232665,0.66966105,-6.660722
912,2026-05-11 16:19:03.393803,2.49106,0.08573671,2.0613399,2.8232665,0.66966105,-6.660722
913,2026-05-11 16:19:03.396417,2.49106,0.08573671,2.0613399,2.8232665,0.66966105,-6.660722
914,2026-05-11 16:19:03.399326,2.7416234,-0.24458744,2.5297818,2.8232665,0.66966105,-6.660722
915,2026-05-11 16:19:03.401995,2.7416234,-0.24458744,2.5297818,2.8232665,0.66966105,-6.660722
916,2026-05-11 16:19:03.405187,2.7416234,-0.24458744,2.5297818,2.8232665,0.66966105,-6.660722
917,2026-05-11 16:19:03.407819,2.7416234,-0.24458744,2.5297818,2.8232665,0.66966105,-6.660722
918,2026-05-11 16:19:03.410563,2.7416234,-0.24458744,2.5297818,2.8232665,0.66966105,-6.660722
919,2026-05-11 16:19:03.413178,2.7416234,-0.24458744,2.5297818,2.8232665,0.66966105,-6.660722
920,2026-05-11 16:19:03.415962,2.7416234,-0.24458744,2.5297818,2.8232665,0.66966105,-6.660722
921,2026-05-11 16:19:03.418635,2.7416234,-0.24458744,2.5297818,2.8232665,0.66966105,-6.660722
922,2026-05-11 16:19:03.421783,2.7416234,-0.24458744,2.5297818,2.8232665,0.66966105,-6.660722
923,2026-05-11 16:19:03.424493,2.7416234,-0.24458744,2.5297818,2.8232665,0.66966105,-6.660722
924,2026-05-11 16:19:03.427089,2.7416234,-0.24458744,2.5297818,2.8232665,0.66966105,-6.660722
925,2026-05-11 16:19:03.429936,2.2896457,-0.60021794,2.801627,2.8232665,0.66966105,-6.660722
926,2026-05-11 16:19:03.432526,2.2896457,-0.60021794,2.801627,2.8232665,0.66966105,-6.660722
927,2026-05-11 16:19:03.435620,2.2896457,-0.60021794,2.801627,2.8232665,0.66966105,-6.660722
928,2026-05-11 16:19:03.438480,2.2896457,-0.60021794,2.801627,2.8232665,0.66966105,-6.660722
929,2026-05-11 16:19:03.441086,2.2896457,-0.60021794,2.801627,2.8232665,0.66966105,-6.660722
930,2026-05-11 16:19:03.443683,2.2896457,-0.60021794,2.801627,2.8232665,0.66966105,-6.660722
931,2026-05-11 16:19:03.446456,2.2896457,-0.60021794,2.801627,2.8232665,0.66966105,-6.660722
932,2026-05-11 16:19:03.449055,2.2896457,-0.60021794,2.801627,2.8232665,0.66966105,-6.660722
933,2026-05-11 16:19:03.451763,2.2896457,-0.60021794,2.801627,2.8232665,0.66966105,-6.660722
934,2026-05-11 16:19:03.454803,2.2896457,-0.60021794,2.801627,3.3238704,1.7953329,-7.190495
935,2026-05-11 16:19:03.457638,2.2896457,-0.60021794,2.801627,3.3238704,1.7953329,-7.190495
936,2026-05-11 16:19:03.460392,2.2896457,-0.60021794,2.801627,3.3238704,1.7953329,-7.190495
937,2026-05-11 16:19:03.463084,2.2896457,-0.60021794,2.801627,3.3238704,1.7953329,-7.190495
938,2026-05-11 16:19:03.465844,2.2896457,-0.60021794,2.801627,3.3238704,1.7953329,-7.190495
939,2026-05-11 16:19:03.468550,2.2896457,-0.60021794,2.801627,3.3238704,1.7953329,-7.190495
940,2026-05-11 16:19:03.471687,2.2896457,-0.60021794,2.801627,3.3238704,1.7953329,-7.190495
941,2026-05-11 16:19:03.474644,1.8581573,-0.8478543,2.9122431,3.3238704,1.7953329,-7.190495
942,2026-05-11 16:19:03.477273,1.8581573,-0.8478543,2.9122431,3.3238704,1.7953329,-7.190495
943,2026-05-11 16:19:03.479872,1.8581573,-0.8478543,2.9122431,3.3238704,1.7953329,-7.190495
944,2026-05-11 16:19:03.482552,1.8581573,-0.8478543,2.9122431,3.3238704,1.7953329,-7.190495
945,2026-05-11 16:19:03.485102,1.8581573,-0.8478543,2.9122431,3.3238704,1.7953329,-7.190495
946,2026-05-11 16:19:03.488529,1.8581573,-0.8478543,2.9122431,4.227951,1.8602374,-7.249138
947,2026-05-11 16:19:03.491151,1.8581573,-0.8478543,2.9122431,4.227951,1.8602374,-7.249138
948,2026-05-11 16:19:03.493716,1.8581573,-0.8478543,2.9122431,4.227951,1.8602374,-7.249138
949,2026-05-11 16:19:03.496307,1.8581573,-0.8478543,2.9122431,4.227951,1.8602374,-7.249138
950,2026-05-11 16:19:03.498819,1.8581573,-0.8478543,2.9122431,4.227951,1.8602374,-7.249138
951,2026-05-11 16:19:03.501420,1.8581573,-0.8478543,2.9122431,5.7474785,1.0761919,-6.976692
952,2026-05-11 16:19:03.504290,1.8581573,-0.8478543,2.9122431,5.7474785,1.0761919,-6.976692
953,2026-05-11 16:19:03.506925,1.8581573,-0.8478543,2.9122431,5.7474785,1.0761919,-6.976692
954,2026-05-11 16:19:03.509579,1.8581573,-0.8478543,2.9122431,5.7474785,1.0761919,-6.976692
955,2026-05-11 16:19:03.512159,1.5008802,-1.1437863,2.7994926,5.7474785,1.0761919,-6.976692
956,2026-05-11 16:19:03.514926,1.5008802,-1.1437863,2.7994926,5.7474785,1.0761919,-6.976692
957,2026-05-11 16:19:03.517528,1.5008802,-1.1437863,2.7994926,5.7474785,1.0761919,-6.976692
958,2026-05-11 16:19:03.520479,1.5008802,-1.1437863,2.7994926,5.7474785,1.0761919,-6.976692
959,2026-05-11 16:19:03.523239,1.5008802,-1.1437863,2.7994926,5.7474785,1.0761919,-6.976692
960,2026-05-11 16:19:03.525817,1.5008802,-1.1437863,2.7994926,5.7474785,1.0761919,-6.976692
961,2026-05-11 16:19:03.528390,1.5008802,-1.1437863,2.7994926,5.7474785,1.0761919,-6.976692
962,2026-05-11 16:19:03.531029,1.5008802,-1.1437863,2.7994926,5.7474785,1.0761919,-6.976692
963,2026-05-11 16:19:03.533592,1.5008802,-1.1437863,2.7994926,5.7474785,1.0761919,-6.976692
964,2026-05-11 16:19:03.536803,1.5008802,-1.1437863,2.7994926,5.7474785,1.0761919,-6.976692
965,2026-05-11 16:19:03.539646,1.5008802,-1.1437863,2.7994926,5.7474785,1.0761919,-6.976692
966,2026-05-11 16:19:03.542438,1.5008802,-1.1437863,2.7994926,5.7474785,1.0761919,-6.976692
967,2026-05-11 16:19:03.545096,1.5008802,-1.1437863,2.7994926,5.7474785,1.0761919,-6.976692
968,2026-05-11 16:19:03.547740,1.5008802,-1.1437863,2.7994926,5.7474785,1.0761919,-6.976692
969,2026-05-11 16:19:03.550508,1.5008802,-1.1437863,2.7994926,5.7474785,1.0761919,-6.976692
970,2026-05-11 16:19:03.553529,1.4203877,-1.2436701,2.3860538,7.127881,-0.03145956,-6.6814914
971,2026-05-11 16:19:03.556297,1.4203877,-1.2436701,2.3860538,7.127881,-0.03145956,-6.6814914
972,2026-05-11 16:19:03.559074,1.4203877,-1.2436701,2.3860538,7.127881,-0.03145956,-6.6814914
973,2026-05-11 16:19:03.561702,1.4203877,-1.2436701,2.3860538,7.127881,-0.03145956,-6.6814914
974,2026-05-11 16:19:03.564542,1.4203877,-1.2436701,2.3860538,7.127881,-0.03145956,-6.6814914
975,2026-05-11 16:19:03.567154,1.4203877,-1.2436701,2.3860538,7.127881,-0.03145956,-6.6814914
976,2026-05-11 16:19:03.570207,1.4689271,-1.264464,1.8774267,7.127881,-0.03145956,-6.6814914
977,2026-05-11 16:19:03.572885,1.4689271,-1.264464,1.8774267,7.127881,-0.03145956,-6.6814914
978,2026-05-11 16:19:03.575731,1.4689271,-1.264464,1.8774267,7.856643,-0.82253003,-6.590778
979,2026-05-11 16:19:03.578318,1.4689271,-1.264464,1.8774267,7.856643,-0.82253003,-6.590778
980,2026-05-11 16:19:03.580897,1.4689271,-1.264464,1.8774267,7.856643,-0.82253003,-6.590778
981,2026-05-11 16:19:03.583720,1.4689271,-1.264464,1.8774267,7.856643,-0.82253003,-6.590778
982,2026-05-11 16:19:03.586785,1.4689271,-1.264464,1.8774267,7.856643,-0.82253003,-6.590778
983,2026-05-11 16:19:03.589476,1.4689271,-1.264464,1.8774267,7.856643,-0.82253003,-6.590778
984,2026-05-11 16:19:03.592046,1.4689271,-1.264464,1.8774267,7.856643,-0.82253003,-6.590778
985,2026-05-11 16:19:03.594621,1.4689271,-1.264464,1.8774267,7.856643,-0.82253003,-6.590778
986,2026-05-11 16:19:03.597422,1.4689271,-1.264464,1.8774267,7.856643,-0.82253003,-6.590778
987,2026-05-11 16:19:03.600116,1.4161192,-1.311418,1.5031365,7.9647665,-1.0587822,-6.665303
988,2026-05-11 16:19:03.603290,1.4161192,-1.311418,1.5031365,7.9647665,-1.0587822,-6.665303
989,2026-05-11 16:19:03.605985,1.4161192,-1.311418,1.5031365,7.9647665,-1.0587822,-6.665303
990,2026-05-11 16:19:03.608610,1.4161192,-1.311418,1.5031365,7.9647665,-1.0587822,-6.665303
991,2026-05-11 16:19:03.611420,1.1804347,-1.4066675,1.0954298,7.9647665,-1.0587822,-6.665303
992,2026-05-11 16:19:03.614030,1.1804347,-1.4066675,1.0954298,7.9647665,-1.0587822,-6.665303
993,2026-05-11 16:19:03.616726,1.1804347,-1.4066675,1.0954298,7.9647665,-1.0587822,-6.665303
994,2026-05-11 16:19:03.619589,1.1804347,-1.4066675,1.0954298,7.9647665,-1.0587822,-6.665303
995,2026-05-11 16:19:03.622466,1.1804347,-1.4066675,1.0954298,7.9647665,-1.0587822,-6.665303
996,2026-05-11 16:19:03.625158,1.1804347,-1.4066675,1.0954298,7.9647665,-1.0587822,-6.665303
997,2026-05-11 16:19:03.627748,1.1804347,-1.4066675,1.0954298,7.9647665,-1.0587822,-6.665303
998,2026-05-11 16:19:03.630381,1.1804347,-1.4066675,1.0954298,7.9647665,-1.0587822,-6.665303
999,2026-05-11 16:19:03.633187,1.1804347,-1.4066675,1.0954298,7.9647665,-1.0587822,-6.665303
1000,2026-05-11 16:19:03.636334,1.1804347,-1.4066675,1.0954298,7.9647665,-1.0587822,-6.665303
1001,2026-05-11 16:19:03.639144,1.1804347,-1.4066675,1.0954298,7.7976947,-1.0858129,-6.704246
1002,2026-05-11 16:19:03.641773,1.1804347,-1.4066675,1.0954298,7.7976947,-1.0858129,-6.704246
1003,2026-05-11 16:19:03.644562,1.1804347,-1.4066675,1.0954298,7.7976947,-1.0858129,-6.704246
1004,2026-05-11 16:19:03.647167,1.1804347,-1.4066675,1.0954298,7.7976947,-1.0858129,-6.704246
1005,2026-05-11 16:19:03.649910,1.1804347,-1.4066675,1.0954298,7.7976947,-1.0858129,-6.704246
1006,2026-05-11 16:19:03.652855,1.1804347,-1.4066675,1.0954298,7.7976947,-1.0858129,-6.704246
1007,2026-05-11 16:19:03.655580,1.1804347,-1.4066675,1.0954298,7.7976947,-1.0858129,-6.704246
1008,2026-05-11 16:19:03.658329,1.1804347,-1.4066675,1.0954298,7.7976947,-1.0858129,-6.704246
1009,2026-05-11 16:19:03.661045,1.1804347,-1.4066675,1.0954298,7.7976947,-1.0858129,-6.704246
1010,2026-05-11 16:19:03.663776,1.1804347,-1.4066675,1.0954298,7.7976947,-1.0858129,-6.704246
1011,2026-05-11 16:19:03.666556,0.8977353,-1.6385713,0.7748013,7.4985237,-1.2173017,-6.6781316
1012,2026-05-11 16:19:03.669554,0.8977353,-1.6385713,0.7748013,7.4985237,-1.2173017,-6.6781316
1013,2026-05-11 16:19:03.672469,0.8977353,-1.6385713,0.7748013,7.3199983,-1.6453656,-6.5267897
1014,2026-05-11 16:19:03.675224,0.8977353,-1.6385713,0.7748013,7.3199983,-1.6453656,-6.5267897
1015,2026-05-11 16:19:03.677970,0.5914369,-1.8816952,0.5577155,7.3199983,-1.6453656,-6.5267897
1016,2026-05-11 16:19:03.680696,0.20324357,-2.0883536,0.30050534,7.3199983,-1.6453656,-6.5267897
1017,2026-05-11 16:19:03.683387,0.20324357,-2.0883536,0.30050534,7.3199983,-1.6453656,-6.5267897
1018,2026-05-11 16:19:03.686464,0.20324357,-2.0883536,0.30050534,7.3199983,-1.6453656,-6.5267897
1019,2026-05-11 16:19:03.689255,0.20324357,-2.0883536,0.30050534,7.3199983,-1.6453656,-6.5267897
1020,2026-05-11 16:19:03.691993,0.20324357,-2.0883536,0.30050534,7.3199983,-1.6453656,-6.5267897
1021,2026-05-11 16:19:03.694582,0.20324357,-2.0883536,0.30050534,7.3199983,-1.6453656,-6.5267897
1022,2026-05-11 16:19:03.697391,0.20324357,-2.0883536,0.30050534,7.3199983,-1.6453656,-6.5267897
1023,2026-05-11 16:19:03.699983,0.20324357,-2.0883536,0.30050534,7.3199983,-1.6453656,-6.5267897
1024,2026-05-11 16:19:03.702836,0.20324357,-2.0883536,0.30050534,7.3199983,-1.6453656,-6.5267897
1025,2026-05-11 16:19:03.705616,0.20324357,-2.0883536,0.30050534,7.3199983,-1.6453656,-6.5267897
1026,2026-05-11 16:19:03.708435,0.20324357,-2.0883536,0.30050534,7.3199983,-1.6453656,-6.5267897
1027,2026-05-11 16:19:03.711205,0.20324357,-2.0883536,0.30050534,7.3199983,-1.6453656,-6.5267897
1028,2026-05-11 16:19:03.713882,0.20324357,-2.0883536,0.30050534,7.3199983,-1.6453656,-6.5267897
1029,2026-05-11 16:19:03.716649,0.20324357,-2.0883536,0.30050534,7.262119,-2.118939,-6.3470426
1030,2026-05-11 16:19:03.719705,-0.27721128,-2.2868407,-0.17562,6.7460904,-3.111442,-5.630345
1031,2026-05-11 16:19:03.722645,-0.27721128,-2.2868407,-0.17562,6.7460904,-3.111442,-5.630345
1032,2026-05-11 16:19:03.725290,-0.27721128,-2.2868407,-0.17562,6.7460904,-3.111442,-5.630345
1033,2026-05-11 16:19:03.727970,-0.27721128,-2.2868407,-0.17562,6.7460904,-3.111442,-5.630345
1034,2026-05-11 16:19:03.730612,-0.27721128,-2.2868407,-0.17562,6.7460904,-3.111442,-5.630345
1035,2026-05-11 16:19:03.733194,-0.27721128,-2.2868407,-0.17562,6.7460904,-3.111442,-5.630345
1036,2026-05-11 16:19:03.736227,-0.27721128,-2.2868407,-0.17562,6.7460904,-3.111442,-5.630345
1037,2026-05-11 16:19:03.738955,-0.27721128,-2.2868407,-0.17562,6.7460904,-3.111442,-5.630345
1038,2026-05-11 16:19:03.741594,-0.27721128,-2.2868407,-0.17562,6.7460904,-3.111442,-5.630345
1039,2026-05-11 16:19:03.744433,-0.27721128,-2.2868407,-0.17562,6.7460904,-3.111442,-5.630345
1040,2026-05-11 16:19:03.747130,-0.27721128,-2.2868407,-0.17562,5.7149496,-3.1054862,-4.979621
1041,2026-05-11 16:19:03.749891,-0.27721128,-2.2868407,-0.17562,5.7149496,-3.1054862,-4.979621
1042,2026-05-11 16:19:03.752886,-0.27721128,-2.2868407,-0.17562,5.7149496,-3.1054862,-4.979621
1043,2026-05-11 16:19:03.755853,-0.36666775,-2.4422157,-0.289834,5.7149496,-3.1054862,-4.979621
1044,2026-05-11 16:19:03.758497,-0.36666775,-2.4422157,-0.289834,5.7149496,-3.1054862,-4.979621
1045,2026-05-11 16:19:03.761087,-0.36666775,-2.4422157,-0.289834,5.7149496,-3.1054862,-4.979621
1046,2026-05-11 16:19:03.763953,-0.36666775,-2.4422157,-0.289834,5.7149496,-3.1054862,-4.979621
1047,2026-05-11 16:19:03.766619,-0.36666775,-2.4422157,-0.289834,5.7149496,-3.1054862,-4.979621
1048,2026-05-11 16:19:03.769973,-0.36666775,-2.4422157,-0.289834,5.7149496,-3.1054862,-4.979621
1049,2026-05-11 16:19:03.772932,-0.36666775,-2.4422157,-0.289834,5.7149496,-3.1054862,-4.979621
1050,2026-05-11 16:19:03.775536,-0.36666775,-2.4422157,-0.289834,5.7149496,-3.1054862,-4.979621
1051,2026-05-11 16:19:03.778413,-0.36666775,-2.4422157,-0.289834,5.7149496,-3.1054862,-4.979621
1052,2026-05-11 16:19:03.781369,-0.47167388,-2.652289,-0.1934869,4.8441615,-2.4915667,-4.597983
1053,2026-05-11 16:19:03.783995,-0.47167388,-2.652289,-0.1934869,4.8441615,-2.4915667,-4.597983
1054,2026-05-11 16:19:03.787141,-0.47167388,-2.652289,-0.1934869,4.8441615,-2.4915667,-4.597983
1055,2026-05-11 16:19:03.789899,-0.47167388,-2.652289,-0.1934869,4.8441615,-2.4915667,-4.597983
1056,2026-05-11 16:19:03.792472,-0.47167388,-2.652289,-0.1934869,4.8441615,-2.4915667,-4.597983
1057,2026-05-11 16:19:03.795429,-0.47167388,-2.652289,-0.1934869,3.9272528,-1.5474744,-4.006665
1058,2026-05-11 16:19:03.798218,-0.47167388,-2.652289,-0.1934869,3.9272528,-1.5474744,-4.006665
1059,2026-05-11 16:19:03.800955,-0.47167388,-2.652289,-0.1934869,3.9272528,-1.5474744,-4.006665
1060,2026-05-11 16:19:03.803872,-0.47167388,-2.652289,-0.1934869,3.9272528,-1.5474744,-4.006665
1061,2026-05-11 16:19:03.806719,-0.8153525,-2.9871256,-0.048234522,3.9272528,-1.5474744,-4.006665
1062,2026-05-11 16:19:03.809330,-0.8153525,-2.9871256,-0.048234522,3.9272528,-1.5474744,-4.006665
1063,2026-05-11 16:19:03.812238,-0.8153525,-2.9871256,-0.048234522,3.9272528,-1.5474744,-4.006665
1064,2026-05-11 16:19:03.815023,-1.1453718,-3.2454944,0.068052754,3.9272528,-1.5474744,-4.006665
1065,2026-05-11 16:19:03.817652,-1.1453718,-3.2454944,0.068052754,3.9272528,-1.5474744,-4.006665
1066,2026-05-11 16:19:03.820676,-1.1453718,-3.2454944,0.068052754,3.9272528,-1.5474744,-4.006665
1067,2026-05-11 16:19:03.823383,-1.1453718,-3.2454944,0.068052754,3.9272528,-1.5474744,-4.006665
1068,2026-05-11 16:19:03.825947,-1.1453718,-3.2454944,0.068052754,3.9272528,-1.5474744,-4.006665
1069,2026-05-11 16:19:03.828812,-1.1453718,-3.2454944,0.068052754,3.9272528,-1.5474744,-4.006665
1070,2026-05-11 16:19:03.831431,-1.1453718,-3.2454944,0.068052754,3.9272528,-1.5474744,-4.006665
1071,2026-05-11 16:19:03.834035,-1.1453718,-3.2454944,0.068052754,3.9272528,-1.5474744,-4.006665
1072,2026-05-11 16:19:03.837233,-1.1453718,-3.2454944,0.068052754,3.9272528,-1.5474744,-4.006665
1073,2026-05-11 16:19:03.840005,-1.1453718,-3.2454944,0.068052754,3.9272528,-1.5474744,-4.006665
1074,2026-05-11 16:19:03.842821,-1.1453718,-3.2454944,0.068052754,3.7061195,-1.2997686,-3.59708
1075,2026-05-11 16:19:03.845525,-1.1453718,-3.2454944,0.068052754,3.7061195,-1.2997686,-3.59708
1076,2026-05-11 16:19:03.848209,-1.1453718,-3.2454944,0.068052754,3.7061195,-1.2997686,-3.59708
1077,2026-05-11 16:19:03.850960,-1.1453718,-3.2454944,0.068052754,3.7061195,-1.2997686,-3.59708
1078,2026-05-11 16:19:03.854121,-1.1453718,-3.2454944,0.068052754,3.451694,-1.0850494,-2.5001187
1079,2026-05-11 16:19:03.856816,-1.4888064,-3.5308156,0.084456146,3.451694,-1.0850494,-2.5001187
1080,2026-05-11 16:19:03.859642,-1.4888064,-3.5308156,0.084456146,3.451694,-1.0850494,-2.5001187
1081,2026-05-11 16:19:03.862319,-1.4888064,-3.5308156,0.084456146,3.451694,-1.0850494,-2.5001187
1082,2026-05-11 16:19:03.865052,-1.4888064,-3.5308156,0.084456146,3.451694,-1.0850494,-2.5001187
1083,2026-05-11 16:19:03.867657,-1.4888064,-3.5308156,0.084456146,3.451694,-1.0850494,-2.5001187
1084,2026-05-11 16:19:03.870620,-1.4888064,-3.5308156,0.084456146,3.451694,-1.0850494,-2.5001187
1085,2026-05-11 16:19:03.873438,-1.4888064,-3.5308156,0.084456146,3.451694,-1.0850494,-2.5001187
1086,2026-05-11 16:19:03.876210,-1.4888064,-3.5308156,0.084456146,3.451694,-1.0850494,-2.5001187
1087,2026-05-11 16:19:03.878948,-1.7553463,-3.6496031,-0.04549046,3.451694,-1.0850494,-2.5001187
1088,2026-05-11 16:19:03.881639,-1.7553463,-3.6496031,-0.04549046,3.451694,-1.0850494,-2.5001187
1089,2026-05-11 16:19:03.884348,-1.7553463,-3.6496031,-0.04549046,3.451694,-1.0850494,-2.5001187
1090,2026-05-11 16:19:03.887366,-1.7553463,-3.6496031,-0.04549046,3.451694,-1.0850494,-2.5001187
1091,2026-05-11 16:19:03.890179,-1.7553463,-3.6496031,-0.04549046,3.451694,-1.0850494,-2.5001187
1092,2026-05-11 16:19:03.892856,-1.7553463,-3.6496031,-0.04549046,3.451694,-1.0850494,-2.5001187
1093,2026-05-11 16:19:03.895434,-1.7553463,-3.6496031,-0.04549046,3.451694,-1.0850494,-2.5001187
1094,2026-05-11 16:19:03.898147,-1.7553463,-3.6496031,-0.04549046,3.451694,-1.0850494,-2.5001187
1095,2026-05-11 16:19:03.900814,-1.7553463,-3.6496031,-0.04549046,2.8556423,-0.6348417,-0.95814216
1096,2026-05-11 16:19:03.903960,-1.7553463,-3.6496031,-0.04549046,2.8556423,-0.6348417,-0.95814216
1097,2026-05-11 16:19:03.906718,-1.7553463,-3.6496031,-0.04549046,2.8556423,-0.6348417,-0.95814216
1098,2026-05-11 16:19:03.909403,-1.6488768,-3.6198454,-0.086834334,2.3585508,-0.22296582,-0.15195273
1099,2026-05-11 16:19:03.911983,-1.6488768,-3.6198454,-0.086834334,2.3585508,-0.22296582,-0.15195273
1100,2026-05-11 16:19:03.914782,-1.6488768,-3.6198454,-0.086834334,2.3585508,-0.22296582,-0.15195273
1101,2026-05-11 16:19:03.917387,-1.6488768,-3.6198454,-0.086834334,2.3585508,-0.22296582,-0.15195273
1102,2026-05-11 16:19:03.920509,-1.6488768,-3.6198454,-0.086834334,2.3585508,-0.22296582,-0.15195273
1103,2026-05-11 16:19:03.923360,-1.6488768,-3.6198454,-0.086834334,2.3585508,-0.22296582,-0.15195273
1104,2026-05-11 16:19:03.925969,-1.6488768,-3.6198454,-0.086834334,2.3585508,-0.22296582,-0.15195273
1105,2026-05-11 16:19:03.928569,-1.6488768,-3.6198454,-0.086834334,2.3585508,-0.22296582,-0.15195273
1106,2026-05-11 16:19:03.931236,-1.4209975,-3.5867338,-0.09994486,2.3585508,-0.22296582,-0.15195273
1107,2026-05-11 16:19:03.933816,-1.4209975,-3.5867338,-0.09994486,2.3585508,-0.22296582,-0.15195273
1108,2026-05-11 16:19:03.936800,-1.4209975,-3.5867338,-0.09994486,2.3585508,-0.22296582,-0.15195273
1109,2026-05-11 16:19:03.939838,-1.4209975,-3.5867338,-0.09994486,2.3585508,-0.22296582,-0.15195273
1110,2026-05-11 16:19:03.942533,-1.4209975,-3.5867338,-0.09994486,2.3585508,-0.22296582,-0.15195273
1111,2026-05-11 16:19:03.945107,-1.4209975,-3.5867338,-0.09994486,2.3585508,-0.22296582,-0.15195273
1112,2026-05-11 16:19:03.947909,-1.4209975,-3.5867338,-0.09994486,2.3585508,-0.22296582,-0.15195273
1113,2026-05-11 16:19:03.950475,-1.4209975,-3.5867338,-0.09994486,2.3585508,-0.22296582,-0.15195273
1114,2026-05-11 16:19:03.953499,-1.4209975,-3.5867338,-0.09994486,2.3585508,-0.22296582,-0.15195273
1115,2026-05-11 16:19:03.956298,-1.4209975,-3.5867338,-0.09994486,1.5515977,0.5154176,0.83169305
1116,2026-05-11 16:19:03.958866,-1.4209975,-3.5867338,-0.09994486,1.5515977,0.5154176,0.83169305
1117,2026-05-11 16:19:03.961436,-1.4209975,-3.5867338,-0.09994486,1.5515977,0.5154176,0.83169305
1118,2026-05-11 16:19:03.964155,-1.4209975,-3.5867338,-0.09994486,1.5515977,0.5154176,0.83169305
1119,2026-05-11 16:19:03.966787,-1.4209975,-3.5867338,-0.09994486,1.5515977,0.5154176,0.83169305
1120,2026-05-11 16:19:03.969907,-1.4209975,-3.5867338,-0.09994486,1.5515977,0.5154176,0.83169305
1121,2026-05-11 16:19:03.972704,-1.4209975,-3.5867338,-0.09994486,1.5515977,0.5154176,0.83169305
1122,2026-05-11 16:19:03.975465,-1.4209975,-3.5867338,-0.09994486,1.5515977,0.5154176,0.83169305
1123,2026-05-11 16:19:03.978089,-1.4209975,-3.5867338,-0.09994486,1.5515977,0.5154176,0.83169305
1124,2026-05-11 16:19:03.980810,-1.4209975,-3.5867338,-0.09994486,1.5515977,0.5154176,0.83169305
1125,2026-05-11 16:19:03.983406,-1.4209975,-3.5867338,-0.09994486,1.5515977,0.5154176,0.83169305
1126,2026-05-11 16:19:03.986460,-1.4209975,-3.5867338,-0.09994486,1.5515977,0.5154176,0.83169305
1127,2026-05-11 16:19:03.989284,-1.4209975,-3.5867338,-0.09994486,1.5515977,0.5154176,0.83169305
1128,2026-05-11 16:19:03.992028,-0.9740202,-3.4886794,-0.13732508,-0.98471475,2.611907,2.6565003
1129,2026-05-11 16:19:03.994758,-0.9740202,-3.4886794,-0.13732508,-0.98471475,2.611907,2.6565003
1130,2026-05-11 16:19:03.997579,-0.32123825,-3.3239746,-0.12067777,-0.98471475,2.611907,2.6565003
1131,2026-05-11 16:19:04.000282,-0.32123825,-3.3239746,-0.12067777,-0.98471475,2.611907,2.6565003
1132,2026-05-11 16:19:04.003343,0.18135203,-3.10573,0.062076796,-0.98471475,2.611907,2.6565003
1133,2026-05-11 16:19:04.006103,0.18135203,-3.10573,0.062076796,-0.98471475,2.611907,2.6565003
1134,2026-05-11 16:19:04.008700,0.18135203,-3.10573,0.062076796,-0.98471475,2.611907,2.6565003
1135,2026-05-11 16:19:04.011464,0.18135203,-3.10573,0.062076796,-0.98471475,2.611907,2.6565003
1136,2026-05-11 16:19:04.014294,0.18135203,-3.10573,0.062076796,-1.9816469,3.278972,2.8580859
1137,2026-05-11 16:19:04.017018,0.18135203,-3.10573,0.062076796,-1.9816469,3.278972,2.8580859
1138,2026-05-11 16:19:04.020082,0.18135203,-3.10573,0.062076796,-1.9816469,3.278972,2.8580859
1139,2026-05-11 16:19:04.022815,0.18135203,-3.10573,0.062076796,-1.9816469,3.278972,2.8580859
1140,2026-05-11 16:19:04.025409,0.18135203,-3.10573,0.062076796,-1.9816469,3.278972,2.8580859
1141,2026-05-11 16:19:04.027952,0.18135203,-3.10573,0.062076796,-1.9816469,3.278972,2.8580859
1142,2026-05-11 16:19:04.030658,0.18135203,-3.10573,0.062076796,-1.9816469,3.278972,2.8580859
1143,2026-05-11 16:19:04.033226,0.18135203,-3.10573,0.062076796,-1.9816469,3.278972,2.8580859
1144,2026-05-11 16:19:04.036184,0.18135203,-3.10573,0.062076796,-1.9816469,3.278972,2.8580859
1145,2026-05-11 16:19:04.039224,0.18135203,-3.10573,0.062076796,-2.8855748,4.133267,2.5680776
1146,2026-05-11 16:19:04.041984,0.18135203,-3.10573,0.062076796,-2.8855748,4.133267,2.5680776
1147,2026-05-11 16:19:04.044752,0.11708001,-2.5697231,0.743397,-3.0337095,4.5906525,2.420248
1148,2026-05-11 16:19:04.047634,-0.10555494,-2.3419049,0.7469948,-3.010344,4.732984,2.6096163
1149,2026-05-11 16:19:04.050434,-0.27672347,-2.0323138,0.6336955,-3.2302554,4.749325,3.2391129
1150,2026-05-11 16:19:04.053536,-0.27672347,-2.0323138,0.6336955,-3.2302554,4.749325,3.2391129
1151,2026-05-11 16:19:04.056392,-0.27672347,-2.0323138,0.6336955,-3.2302554,4.749325,3.2391129
1152,2026-05-11 16:19:04.059102,-0.27672347,-2.0323138,0.6336955,-3.2302554,4.749325,3.2391129
1153,2026-05-11 16:19:04.061861,-0.27672347,-2.0323138,0.6336955,-3.2302554,4.749325,3.2391129
1154,2026-05-11 16:19:04.064552,-0.28062615,-1.8785853,0.591254,-3.2302554,4.749325,3.2391129
1155,2026-05-11 16:19:04.067330,-0.28062615,-1.8785853,0.591254,-4.568661,5.0469685,4.3843327
1156,2026-05-11 16:19:04.070591,-0.28062615,-1.8785853,0.591254,-4.568661,5.0469685,4.3843327
1157,2026-05-11 16:19:04.073378,-0.28062615,-1.8785853,0.591254,-4.568661,5.0469685,4.3843327
1158,2026-05-11 16:19:04.076039,-0.28062615,-1.8785853,0.591254,-4.568661,5.0469685,4.3843327
1159,2026-05-11 16:19:04.078740,-0.28062615,-1.8785853,0.591254,-4.568661,5.0469685,4.3843327
1160,2026-05-11 16:19:04.081337,-0.28062615,-1.8785853,0.591254,-4.568661,5.0469685,4.3843327
1161,2026-05-11 16:19:04.084043,-0.28062615,-1.8785853,0.591254,-4.568661,5.0469685,4.3843327
1162,2026-05-11 16:19:04.087180,-0.38715672,-1.6359491,0.600279,-4.568661,5.0469685,4.3843327
1163,2026-05-11 16:19:04.089957,-0.38715672,-1.6359491,0.600279,-4.568661,5.0469685,4.3843327
1164,2026-05-11 16:19:04.092557,-0.38715672,-1.6359491,0.600279,-4.568661,5.0469685,4.3843327
1165,2026-05-11 16:19:04.095364,-0.38715672,-1.6359491,0.600279,-4.568661,5.0469685,4.3843327
1166,2026-05-11 16:19:04.098133,-0.38715672,-1.6359491,0.600279,-4.568661,5.0469685,4.3843327
1167,2026-05-11 16:19:04.108067,-0.38715672,-1.6359491,0.600279,-4.568661,5.0469685,4.3843327
1168,2026-05-11 16:19:04.127591,-0.38715672,-1.6359491,0.600279,-4.568661,5.0469685,4.3843327
1169,2026-05-11 16:19:04.131371,-0.38715672,-1.6359491,0.600279,-4.568661,5.0469685,4.3843327
1170,2026-05-11 16:19:04.138481,-0.4344156,-1.3841052,0.72638386,-4.568661,5.0469685,4.3843327
1171,2026-05-11 16:19:04.141810,-0.4344156,-1.3841052,0.72638386,-4.568661,5.0469685,4.3843327
1172,2026-05-11 16:19:04.144925,-0.4344156,-1.3841052,0.72638386,-4.568661,5.0469685,4.3843327
1173,2026-05-11 16:19:04.147684,-0.4344156,-1.3841052,0.72638386,-4.568661,5.0469685,4.3843327
1174,2026-05-11 16:19:04.150308,-0.4344156,-1.3841052,0.72638386,-4.568661,5.0469685,4.3843327
1175,2026-05-11 16:19:04.153572,-0.4344156,-1.3841052,0.72638386,-4.568661,5.0469685,4.3843327
1176,2026-05-11 16:19:04.156502,-0.4344156,-1.3841052,0.72638386,-4.568661,5.0469685,4.3843327
1177,2026-05-11 16:19:04.159194,-0.4344156,-1.3841052,0.72638386,-4.568661,5.0469685,4.3843327
1178,2026-05-11 16:19:04.162113,-0.4344156,-1.3841052,0.72638386,-4.568661,5.0469685,4.3843327
1179,2026-05-11 16:19:04.164922,-0.4344156,-1.3841052,0.72638386,-4.568661,5.0469685,4.3843327
1180,2026-05-11 16:19:04.167520,-0.4344156,-1.3841052,0.72638386,-4.568661,5.0469685,4.3843327
1181,2026-05-11 16:19:04.170808,-0.4344156,-1.3841052,0.72638386,-5.788254,5.159673,5.2209125
1182,2026-05-11 16:19:04.173519,-0.4344156,-1.3841052,0.72638386,-5.788254,5.159673,5.2209125
1183,2026-05-11 16:19:04.176299,-0.4344156,-1.3841052,0.72638386,-5.788254,5.159673,5.2209125
1184,2026-05-11 16:19:04.179043,-0.4344156,-1.3841052,0.72638386,-5.788254,5.159673,5.2209125
1185,2026-05-11 16:19:04.181641,-0.4344156,-1.3841052,0.72638386,-5.788254,5.159673,5.2209125
1186,2026-05-11 16:19:04.184239,-0.4344156,-1.3841052,0.72638386,-5.788254,5.159673,5.2209125
1187,2026-05-11 16:19:04.187427,-0.4344156,-1.3841052,0.72638386,-5.788254,5.159673,5.2209125
1188,2026-05-11 16:19:04.190316,-0.13012955,-1.1379322,0.97847176,-6.87651,4.957477,5.8427734
1189,2026-05-11 16:19:04.193106,-0.13012955,-1.1379322,0.97847176,-6.87651,4.957477,5.8427734
1190,2026-05-11 16:19:04.196011,0.8291947,-1.1589091,2.0674376,-9.291261,4.376544,6.854519
1191,2026-05-11 16:19:04.198688,0.8291947,-1.1589091,2.0674376,-9.291261,4.376544,6.854519
1192,2026-05-11 16:19:04.201299,0.8291947,-1.1589091,2.0674376,-9.291261,4.376544,6.854519
1193,2026-05-11 16:19:04.204324,0.8291947,-1.1589091,2.0674376,-9.291261,4.376544,6.854519
1194,2026-05-11 16:19:04.207126,0.8291947,-1.1589091,2.0674376,-9.291261,4.376544,6.854519
1195,2026-05-11 16:19:04.209939,0.8291947,-1.1589091,2.0674376,-9.291261,4.376544,6.854519
1196,2026-05-11 16:19:04.212744,1.249951,-1.1803128,2.6508863,-9.777204,4.2928557,7.3676457
1197,2026-05-11 16:19:04.215545,1.697843,-1.0078636,3.2952533,-9.175043,3.9639046,8.208349
1198,2026-05-11 16:19:04.218152,1.697843,-1.0078636,3.2952533,-9.175043,3.9639046,8.208349
1199,2026-05-11 16:19:04.221246,1.697843,-1.0078636,3.2952533,-9.175043,3.9639046,8.208349
1200,2026-05-11 16:19:04.224000,1.697843,-1.0078636,3.2952533,-9.175043,3.9639046,8.208349
1201,2026-05-11 16:19:04.226631,1.697843,-1.0078636,3.2952533,-9.175043,3.9639046,8.208349
1202,2026-05-11 16:19:04.229203,1.697843,-1.0078636,3.2952533,-9.175043,3.9639046,8.208349
1203,2026-05-11 16:19:04.231765,1.697843,-1.0078636,3.2952533,-9.175043,3.9639046,8.208349
1204,2026-05-11 16:19:04.234509,1.697843,-1.0078636,3.2952533,-9.175043,3.9639046,8.208349
1205,2026-05-11 16:19:04.237386,1.697843,-1.0078636,3.2952533,-9.175043,3.9639046,8.208349
1206,2026-05-11 16:19:04.240316,1.697843,-1.0078636,3.2952533,-9.175043,3.9639046,8.208349
1207,2026-05-11 16:19:04.243037,1.697843,-1.0078636,3.2952533,-9.175043,3.9639046,8.208349
1208,2026-05-11 16:19:04.245727,1.697843,-1.0078636,3.2952533,-9.175043,3.9639046,8.208349
1209,2026-05-11 16:19:04.248401,1.697843,-1.0078636,3.2952533,-9.175043,3.9639046,8.208349
1210,2026-05-11 16:19:04.250996,1.697843,-1.0078636,3.2952533,-9.175043,3.9639046,8.208349
1211,2026-05-11 16:19:04.254064,1.697843,-1.0078636,3.2952533,-9.175043,3.9639046,8.208349
1212,2026-05-11 16:19:04.256731,1.697843,-1.0078636,3.2952533,-9.175043,3.9639046,8.208349
1213,2026-05-11 16:19:04.259410,1.697843,-1.0078636,3.2952533,-9.175043,3.9639046,8.208349
1214,2026-05-11 16:19:04.262051,1.697843,-1.0078636,3.2952533,-9.175043,3.9639046,8.208349
1215,2026-05-11 16:19:04.264688,1.697843,-1.0078636,3.2952533,-9.175043,3.9639046,8.208349
1216,2026-05-11 16:19:04.267318,2.1674435,-0.81766963,3.6034417,-9.175043,3.9639046,8.208349
1217,2026-05-11 16:19:04.270326,2.1674435,-0.81766963,3.6034417,-9.175043,3.9639046,8.208349
1218,2026-05-11 16:19:04.273083,2.1674435,-0.81766963,3.6034417,-9.175043,3.9639046,8.208349
1219,2026-05-11 16:19:04.275670,2.1674435,-0.81766963,3.6034417,-9.175043,3.9639046,8.208349
1220,2026-05-11 16:19:04.278297,2.1674435,-0.81766963,3.6034417,-9.175043,3.9639046,8.208349
1221,2026-05-11 16:19:04.281025,2.1674435,-0.81766963,3.6034417,-9.175043,3.9639046,8.208349
1222,2026-05-11 16:19:04.283604,2.1674435,-0.81766963,3.6034417,-9.175043,3.9639046,8.208349
1223,2026-05-11 16:19:04.286738,2.1674435,-0.81766963,3.6034417,-9.175043,3.9639046,8.208349
1224,2026-05-11 16:19:04.289573,2.1674435,-0.81766963,3.6034417,-9.175043,3.9639046,8.208349
1225,2026-05-11 16:19:04.292368,2.1674435,-0.81766963,3.6034417,-9.175043,3.9639046,8.208349
1226,2026-05-11 16:19:04.295097,2.1674435,-0.81766963,3.6034417,-9.175043,3.9639046,8.208349
1227,2026-05-11 16:19:04.297903,2.1674435,-0.81766963,3.6034417,-9.175043,3.9639046,8.208349
1228,2026-05-11 16:19:04.300501,2.1674435,-0.81766963,3.6034417,-9.175043,3.9639046,8.208349
1229,2026-05-11 16:19:04.303759,2.1674435,-0.81766963,3.6034417,-9.175043,3.9639046,8.208349
1230,2026-05-11 16:19:04.306481,2.1674435,-0.81766963,3.6034417,-9.175043,3.9639046,8.208349
1231,2026-05-11 16:19:04.309285,2.1674435,-0.81766963,3.6034417,-9.175043,3.9639046,8.208349
1232,2026-05-11 16:19:04.312102,2.8844976,0.1606801,3.4881303,-6.6872945,3.1626022,7.496691
1233,2026-05-11 16:19:04.314897,2.8844976,0.1606801,3.4881303,-6.6872945,3.1626022,7.496691
1234,2026-05-11 16:19:04.317669,2.8844976,0.1606801,3.4881303,-6.6872945,3.1626022,7.496691
1235,2026-05-11 16:19:04.320912,2.8844976,0.1606801,3.4881303,-6.6872945,3.1626022,7.496691
1236,2026-05-11 16:19:04.323740,2.8844976,0.1606801,3.4881303,-6.6872945,3.1626022,7.496691
1237,2026-05-11 16:19:04.326423,2.8844976,0.1606801,3.4881303,-6.6872945,3.1626022,7.496691
1238,2026-05-11 16:19:04.329015,2.8844976,0.1606801,3.4881303,-6.6872945,3.1626022,7.496691
1239,2026-05-11 16:19:04.331719,2.8844976,0.1606801,3.4881303,-6.6872945,3.1626022,7.496691
1240,2026-05-11 16:19:04.334466,2.8844976,0.1606801,3.4881303,-6.6872945,3.1626022,7.496691
1241,2026-05-11 16:19:04.337444,2.8844976,0.1606801,3.4881303,-6.6872945,3.1626022,7.496691
1242,2026-05-11 16:19:04.340215,2.8844976,0.1606801,3.4881303,-6.6872945,3.1626022,7.496691
1243,2026-05-11 16:19:04.342860,2.8844976,0.1606801,3.4881303,-6.6872945,3.1626022,7.496691
1244,2026-05-11 16:19:04.345486,2.8844976,0.1606801,3.4881303,-6.6872945,3.1626022,7.496691
1245,2026-05-11 16:19:04.348328,2.8844976,0.1606801,3.4881303,-6.6872945,3.1626022,7.496691
1246,2026-05-11 16:19:04.351002,2.8844976,0.1606801,3.4881303,-6.6872945,3.1626022,7.496691
1247,2026-05-11 16:19:04.354314,2.8844976,0.1606801,3.4881303,-6.6872945,3.1626022,7.496691
1248,2026-05-11 16:19:04.357139,2.8844976,0.1606801,3.4881303,-6.6872945,3.1626022,7.496691
1249,2026-05-11 16:19:04.359835,2.8844976,0.1606801,3.4881303,-6.6872945,3.1626022,7.496691
1250,2026-05-11 16:19:04.362426,2.8844976,0.1606801,3.4881303,-6.6872945,3.1626022,7.496691
1251,2026-05-11 16:19:04.365335,2.8844976,0.1606801,3.4881303,-6.6872945,3.1626022,7.496691
1252,2026-05-11 16:19:04.368062,2.8844976,0.1606801,3.4881303,-6.6872945,3.1626022,7.496691
1253,2026-05-11 16:19:04.371406,2.8844976,0.1606801,3.4881303,-6.6872945,3.1626022,7.496691
1254,2026-05-11 16:19:04.374196,2.8844976,0.1606801,3.4881303,-5.611408,2.7450757,7.000516
1255,2026-05-11 16:19:04.376985,2.8844976,0.1606801,3.4881303,-5.611408,2.7450757,7.000516
1256,2026-05-11 16:19:04.379636,2.8844976,0.1606801,3.4881303,-5.611408,2.7450757,7.000516
1257,2026-05-11 16:19:04.382315,2.8844976,0.1606801,3.4881303,-5.611408,2.7450757,7.000516
1258,2026-05-11 16:19:04.384905,2.8844976,0.1606801,3.4881303,-5.611408,2.7450757,7.000516
1259,2026-05-11 16:19:04.388180,2.8844976,0.1606801,3.4881303,-5.611408,2.7450757,7.000516
1260,2026-05-11 16:19:04.391042,2.7305863,0.46411243,3.085241,-3.780187,2.6403122,6.0235896
1261,2026-05-11 16:19:04.393883,2.7305863,0.46411243,3.085241,-3.780187,2.6403122,6.0235896
1262,2026-05-11 16:19:04.396508,2.7305863,0.46411243,3.085241,-3.780187,2.6403122,6.0235896
1263,2026-05-11 16:19:04.399172,2.7305863,0.46411243,3.085241,-3.780187,2.6403122,6.0235896
1264,2026-05-11 16:19:04.402199,2.7305863,0.46411243,3.085241,-3.780187,2.6403122,6.0235896
1265,2026-05-11 16:19:04.405142,2.7305863,0.46411243,3.085241,-3.780187,2.6403122,6.0235896
1266,2026-05-11 16:19:04.407805,2.7305863,0.46411243,3.085241,-3.780187,2.6403122,6.0235896
1267,2026-05-11 16:19:04.410431,2.7305863,0.46411243,3.085241,-3.780187,2.6403122,6.0235896
1268,2026-05-11 16:19:04.413047,2.7305863,0.46411243,3.085241,-3.780187,2.6403122,6.0235896
1269,2026-05-11 16:19:04.415877,2.7305863,0.46411243,3.085241,-3.780187,2.6403122,6.0235896
1270,2026-05-11 16:19:04.418848,2.7305863,0.46411243,3.085241,-3.780187,2.6403122,6.0235896
1271,2026-05-11 16:19:04.421645,2.7305863,0.46411243,3.085241,-3.780187,2.6403122,6.0235896
1272,2026-05-11 16:19:04.424420,2.6164942,0.608877,2.5666742,-3.780187,2.6403122,6.0235896
1273,2026-05-11 16:19:04.427081,2.6164942,0.608877,2.5666742,-3.780187,2.6403122,6.0235896
1274,2026-05-11 16:19:04.429742,2.6164942,0.608877,2.5666742,-3.780187,2.6403122,6.0235896
