id,timestamp,acc_x,acc_y,acc_z,gyro_x,gyro_y,gyro_z
1,2026-05-11 16:08:52.576777,1.6063132,0.61607254,1.7441872,0.9680687,-2.7650816,0.34009922
2,2026-05-11 16:08:52.587902,1.545456,0.6223534,1.6333879,1.264033,-2.5291348,0.22953261
3,2026-05-11 16:08:52.591004,1.545456,0.6223534,1.6333879,1.264033,-2.5291348,0.22953261
4,2026-05-11 16:08:52.593738,1.545456,0.6223534,1.6333879,1.264033,-2.5291348,0.22953261
5,2026-05-11 16:08:52.596657,1.545456,0.6223534,1.6333879,1.264033,-2.5291348,0.22953261
6,2026-05-11 16:08:52.599494,1.545456,0.6223534,1.6333879,1.264033,-2.5291348,0.22953261
7,2026-05-11 16:08:52.602730,1.545456,0.6223534,1.6333879,1.264033,-2.5291348,0.22953261
8,2026-05-11 16:08:52.605505,1.545456,0.6223534,1.6333879,1.264033,-2.5291348,0.22953261
9,2026-05-11 16:08:52.608316,1.545456,0.6223534,1.6333879,1.264033,-2.5291348,0.22953261
10,2026-05-11 16:08:52.610904,1.545456,0.6223534,1.6333879,1.264033,-2.5291348,0.22953261
11,2026-05-11 16:08:52.613683,1.545456,0.6223534,1.6333879,1.264033,-2.5291348,0.22953261
12,2026-05-11 16:08:52.616541,1.545456,0.6223534,1.6333879,1.264033,-2.5291348,0.22953261
13,2026-05-11 16:08:52.619819,1.545456,0.6223534,1.6333879,1.264033,-2.5291348,0.22953261
14,2026-05-11 16:08:52.622411,1.545456,0.6223534,1.6333879,1.264033,-2.5291348,0.22953261
15,2026-05-11 16:08:52.625388,1.545456,0.6223534,1.6333879,1.264033,-2.5291348,0.22953261
16,2026-05-11 16:08:52.628123,1.545456,0.6223534,1.6333879,1.264033,-2.5291348,0.22953261
17,2026-05-11 16:08:52.630855,1.545456,0.6223534,1.6333879,1.264033,-2.5291348,0.22953261
18,2026-05-11 16:08:52.634103,1.545456,0.6223534,1.6333879,1.264033,-2.5291348,0.22953261
19,2026-05-11 16:08:52.636951,1.545456,0.6223534,1.6333879,1.264033,-2.5291348,0.22953261
20,2026-05-11 16:08:52.639538,1.545456,0.6223534,1.6333879,1.264033,-2.5291348,0.22953261
21,2026-05-11 16:08:52.642265,1.545456,0.6223534,1.6333879,1.264033,-2.5291348,0.22953261
22,2026-05-11 16:08:52.644798,1.545456,0.6223534,1.6333879,1.264033,-2.5291348,0.22953261
23,2026-05-11 16:08:52.648658,1.545456,0.6223534,1.6333879,1.264033,-2.5291348,0.22953261
24,2026-05-11 16:08:52.652358,1.545456,0.6223534,1.6333879,1.264033,-2.5291348,0.22953261
25,2026-05-11 16:08:52.655806,1.545456,0.6223534,1.6333879,1.264033,-2.5291348,0.22953261
26,2026-05-11 16:08:52.658886,1.545456,0.6223534,1.6333879,1.264033,-2.5291348,0.22953261
27,2026-05-11 16:08:52.662039,1.545456,0.6223534,1.6333879,1.264033,-2.5291348,0.22953261
28,2026-05-11 16:08:52.664918,1.545456,0.6223534,1.6333879,1.264033,-2.5291348,0.22953261
29,2026-05-11 16:08:52.668181,1.545456,0.6223534,1.6333879,1.264033,-2.5291348,0.22953261
30,2026-05-11 16:08:52.671202,1.545456,0.6223534,1.6333879,1.264033,-2.5291348,0.22953261
31,2026-05-11 16:08:52.674077,1.545456,0.6223534,1.6333879,1.264033,-2.5291348,0.22953261
32,2026-05-11 16:08:52.676784,1.545456,0.6223534,1.6333879,1.264033,-2.5291348,0.22953261
33,2026-05-11 16:08:52.679476,1.545456,0.6223534,1.6333879,1.264033,-2.5291348,0.22953261
34,2026-05-11 16:08:52.682113,1.545456,0.6223534,1.6333879,1.264033,-2.5291348,0.22953261
35,2026-05-11 16:08:52.685039,1.545456,0.6223534,1.6333879,1.264033,-2.5291348,0.22953261
36,2026-05-11 16:08:52.687811,1.545456,0.6223534,1.6333879,1.264033,-2.5291348,0.22953261
37,2026-05-11 16:08:52.690378,1.545456,0.6223534,1.6333879,1.264033,-2.5291348,0.22953261
38,2026-05-11 16:08:52.692925,1.545456,0.6223534,1.6333879,1.264033,-2.5291348,0.22953261
39,2026-05-11 16:08:52.695423,1.545456,0.6223534,1.6333879,1.264033,-2.5291348,0.22953261
40,2026-05-11 16:08:52.698090,1.545456,0.6223534,1.6333879,1.264033,-2.5291348,0.22953261
41,2026-05-11 16:08:52.701167,1.545456,0.6223534,1.6333879,1.264033,-2.5291348,0.22953261
42,2026-05-11 16:08:52.703952,1.545456,0.6223534,1.6333879,1.264033,-2.5291348,0.22953261
43,2026-05-11 16:08:52.706639,1.545456,0.6223534,1.6333879,1.264033,-2.5291348,0.22953261
44,2026-05-11 16:08:52.709210,1.545456,0.6223534,1.6333879,1.264033,-2.5291348,0.22953261
45,2026-05-11 16:08:52.711869,1.545456,0.6223534,1.6333879,1.264033,-2.5291348,0.22953261
46,2026-05-11 16:08:52.714367,1.545456,0.6223534,1.6333879,1.264033,-2.5291348,0.22953261
47,2026-05-11 16:08:52.717724,1.545456,0.6223534,1.6333879,1.264033,-2.5291348,0.22953261
48,2026-05-11 16:08:52.720686,1.545456,0.6223534,1.6333879,1.264033,-2.5291348,0.22953261
49,2026-05-11 16:08:52.723265,1.545456,0.6223534,1.6333879,1.264033,-2.5291348,0.22953261
50,2026-05-11 16:08:52.726111,1.545456,0.6223534,1.6333879,1.264033,-2.5291348,0.22953261
51,2026-05-11 16:08:52.728766,1.545456,0.6223534,1.6333879,1.264033,-2.5291348,0.22953261
52,2026-05-11 16:08:52.731362,1.545456,0.6223534,1.6333879,1.264033,-2.5291348,0.22953261
53,2026-05-11 16:08:52.734494,1.545456,0.6223534,1.6333879,1.264033,-2.5291348,0.22953261
54,2026-05-11 16:08:52.737385,1.454475,0.54917836,1.343737,1.264033,-2.5291348,0.22953261
55,2026-05-11 16:08:52.739979,1.454475,0.54917836,1.343737,1.264033,-2.5291348,0.22953261
56,2026-05-11 16:08:52.742760,1.454475,0.54917836,1.343737,1.264033,-2.5291348,0.22953261
57,2026-05-11 16:08:52.745440,1.454475,0.54917836,1.343737,1.264033,-2.5291348,0.22953261
58,2026-05-11 16:08:52.747976,1.454475,0.54917836,1.343737,1.264033,-2.5291348,0.22953261
59,2026-05-11 16:08:52.751144,1.454475,0.54917836,1.343737,1.264033,-2.5291348,0.22953261
60,2026-05-11 16:08:52.754037,1.454475,0.54917836,1.343737,1.264033,-2.5291348,0.22953261
61,2026-05-11 16:08:52.756714,1.454475,0.54917836,1.343737,1.264033,-2.5291348,0.22953261
62,2026-05-11 16:08:52.759316,1.454475,0.54917836,1.343737,1.4537066,-1.8939877,0.23411411
63,2026-05-11 16:08:52.762224,1.454475,0.54917836,1.343737,1.4537066,-1.8939877,0.23411411
64,2026-05-11 16:08:52.764819,1.454475,0.54917836,1.343737,1.4537066,-1.8939877,0.23411411
65,2026-05-11 16:08:52.767950,1.454475,0.54917836,1.343737,1.4537066,-1.8939877,0.23411411
66,2026-05-11 16:08:52.770635,1.454475,0.54917836,1.343737,1.4537066,-1.8939877,0.23411411
67,2026-05-11 16:08:52.773230,1.454475,0.54917836,1.343737,1.4537066,-1.8939877,0.23411411
68,2026-05-11 16:08:52.775922,1.454475,0.54917836,1.343737,1.4537066,-1.8939877,0.23411411
69,2026-05-11 16:08:52.778506,1.454475,0.54917836,1.343737,1.4537066,-1.8939877,0.23411411
70,2026-05-11 16:08:52.781257,1.454475,0.54917836,1.343737,1.4537066,-1.8939877,0.23411411
71,2026-05-11 16:08:52.784198,1.454475,0.54917836,1.343737,1.4537066,-1.8939877,0.23411411
72,2026-05-11 16:08:52.787018,1.454475,0.54917836,1.343737,1.4537066,-1.8939877,0.23411411
73,2026-05-11 16:08:52.789627,1.454475,0.54917836,1.343737,1.4537066,-1.8939877,0.23411411
74,2026-05-11 16:08:52.792177,1.454475,0.54917836,1.343737,1.4537066,-1.8939877,0.23411411
75,2026-05-11 16:08:52.794972,1.454475,0.54917836,1.343737,1.4537066,-1.8939877,0.23411411
76,2026-05-11 16:08:52.797524,1.454475,0.54917836,1.343737,1.4537066,-1.8939877,0.23411411
77,2026-05-11 16:08:52.800671,1.454475,0.54917836,1.343737,1.4537066,-1.8939877,0.23411411
78,2026-05-11 16:08:52.803421,1.454475,0.54917836,1.343737,1.4537066,-1.8939877,0.23411411
79,2026-05-11 16:08:52.806124,1.454475,0.54917836,1.343737,1.4537066,-1.8939877,0.23411411
80,2026-05-11 16:08:52.808704,1.454475,0.54917836,1.343737,1.4537066,-1.8939877,0.23411411
81,2026-05-11 16:08:52.811404,1.454475,0.54917836,1.343737,1.4537066,-1.8939877,0.23411411
82,2026-05-11 16:08:52.813967,1.454475,0.54917836,1.343737,1.4537066,-1.8939877,0.23411411
83,2026-05-11 16:08:52.816555,1.454475,0.54917836,1.343737,1.4537066,-1.8939877,0.23411411
84,2026-05-11 16:08:52.819773,1.454475,0.54917836,1.343737,1.4537066,-1.8939877,0.23411411
85,2026-05-11 16:08:52.822352,1.454475,0.54917836,1.343737,1.4537066,-1.8939877,0.23411411
86,2026-05-11 16:08:52.825145,1.454475,0.54917836,1.343737,1.4537066,-1.8939877,0.23411411
87,2026-05-11 16:08:52.827765,1.454475,0.54917836,1.343737,1.4537066,-1.8939877,0.23411411
88,2026-05-11 16:08:52.830418,1.454475,0.54917836,1.343737,1.4537066,-1.8939877,0.23411411
89,2026-05-11 16:08:52.832992,1.454475,0.54917836,1.343737,1.4537066,-1.8939877,0.23411411
90,2026-05-11 16:08:52.836130,1.454475,0.54917836,1.343737,1.4537066,-1.8939877,0.23411411
91,2026-05-11 16:08:52.838785,1.454475,0.54917836,1.343737,1.4537066,-1.8939877,0.23411411
92,2026-05-11 16:08:52.841321,1.454475,0.54917836,1.343737,1.4537066,-1.8939877,0.23411411
93,2026-05-11 16:08:52.843964,1.454475,0.54917836,1.343737,1.4537066,-1.8939877,0.23411411
94,2026-05-11 16:08:52.846731,1.454475,0.54917836,1.343737,1.4537066,-1.8939877,0.23411411
95,2026-05-11 16:08:52.849453,1.454475,0.54917836,1.343737,1.4537066,-1.8939877,0.23411411
96,2026-05-11 16:08:52.852767,1.454475,0.54917836,1.343737,1.4537066,-1.8939877,0.23411411
97,2026-05-11 16:08:52.855881,1.454475,0.54917836,1.343737,1.4537066,-1.8939877,0.23411411
98,2026-05-11 16:08:52.858742,1.454475,0.54917836,1.343737,1.4537066,-1.8939877,0.23411411
99,2026-05-11 16:08:52.861445,1.454475,0.54917836,1.343737,1.4537066,-1.8939877,0.23411411
100,2026-05-11 16:08:52.864075,1.454475,0.54917836,1.343737,1.4537066,-1.8939877,0.23411411
101,2026-05-11 16:08:52.866685,1.454475,0.54917836,1.343737,1.4537066,-1.8939877,0.23411411
102,2026-05-11 16:08:52.870260,1.454475,0.54917836,1.343737,1.4537066,-1.8939877,0.23411411
103,2026-05-11 16:08:52.873114,1.454475,0.54917836,1.343737,1.4537066,-1.8939877,0.23411411
104,2026-05-11 16:08:52.875713,1.454475,0.54917836,1.343737,1.4537066,-1.8939877,0.23411411
105,2026-05-11 16:08:52.878273,1.454475,0.54917836,1.343737,1.4537066,-1.8939877,0.23411411
106,2026-05-11 16:08:52.880996,1.454475,0.54917836,1.343737,1.4537066,-1.8939877,0.23411411
107,2026-05-11 16:08:52.884025,1.454475,0.54917836,1.343737,1.4537066,-1.8939877,0.23411411
108,2026-05-11 16:08:52.887103,1.454475,0.54917836,1.343737,1.4537066,-1.8939877,0.23411411
109,2026-05-11 16:08:52.889804,1.454475,0.54917836,1.343737,1.4537066,-1.8939877,0.23411411
110,2026-05-11 16:08:52.892375,1.454475,0.54917836,1.343737,1.4537066,-1.8939877,0.23411411
111,2026-05-11 16:08:52.894945,1.454475,0.54917836,1.343737,1.4537066,-1.8939877,0.23411411
112,2026-05-11 16:08:52.897713,1.454475,0.54917836,1.343737,1.4537066,-1.8939877,0.23411411
113,2026-05-11 16:08:52.900850,1.454475,0.54917836,1.343737,1.4537066,-1.8939877,0.23411411
114,2026-05-11 16:08:52.903610,1.454475,0.54917836,1.343737,1.4537066,-1.8939877,0.23411411
115,2026-05-11 16:08:52.906191,1.454475,0.54917836,1.343737,1.4537066,-1.8939877,0.23411411
116,2026-05-11 16:08:52.908948,1.454475,0.54917836,1.343737,1.4537066,-1.8939877,0.23411411
117,2026-05-11 16:08:52.911660,1.4202049,0.5296041,1.1799469,1.4537066,-1.8939877,0.23411411
118,2026-05-11 16:08:52.914383,1.4202049,0.5296041,1.1799469,1.4537066,-1.8939877,0.23411411
119,2026-05-11 16:08:52.917601,1.4202049,0.5296041,1.1799469,1.5383114,-1.5100589,0.30008754
120,2026-05-11 16:08:52.920435,1.4202049,0.5296041,1.1799469,1.5383114,-1.5100589,0.30008754
121,2026-05-11 16:08:52.923018,1.4202049,0.5296041,1.1799469,1.5383114,-1.5100589,0.30008754
122,2026-05-11 16:08:52.925872,1.4202049,0.5296041,1.1799469,1.5383114,-1.5100589,0.30008754
123,2026-05-11 16:08:52.928512,1.4202049,0.5296041,1.1799469,1.5383114,-1.5100589,0.30008754
124,2026-05-11 16:08:52.931191,1.4202049,0.5296041,1.1799469,1.5383114,-1.5100589,0.30008754
125,2026-05-11 16:08:52.934076,1.4202049,0.5296041,1.1799469,1.5383114,-1.5100589,0.30008754
126,2026-05-11 16:08:52.936834,1.4202049,0.5296041,1.1799469,1.5383114,-1.5100589,0.30008754
127,2026-05-11 16:08:52.939412,1.4202049,0.5296041,1.1799469,1.5383114,-1.5100589,0.30008754
128,2026-05-11 16:08:52.942011,1.4202049,0.5296041,1.1799469,1.5383114,-1.5100589,0.30008754
129,2026-05-11 16:08:52.944587,1.4202049,0.5296041,1.1799469,1.5383114,-1.5100589,0.30008754
130,2026-05-11 16:08:52.947162,1.4202049,0.5296041,1.1799469,1.5383114,-1.5100589,0.30008754
131,2026-05-11 16:08:52.949856,1.4202049,0.5296041,1.1799469,1.5383114,-1.5100589,0.30008754
132,2026-05-11 16:08:52.953106,1.4202049,0.5296041,1.1799469,1.5383114,-1.5100589,0.30008754
133,2026-05-11 16:08:52.955792,1.4202049,0.5296041,1.1799469,1.6470454,-1.3811663,0.29749137
134,2026-05-11 16:08:52.958394,1.4481943,0.5121031,1.1191506,1.6470454,-1.3811663,0.29749137
135,2026-05-11 16:08:52.961217,1.4481943,0.5121031,1.1191506,1.6470454,-1.3811663,0.29749137
136,2026-05-11 16:08:52.963800,1.4481943,0.5121031,1.1191506,1.6470454,-1.3811663,0.29749137
137,2026-05-11 16:08:52.967256,1.4481943,0.5121031,1.1191506,1.6470454,-1.3811663,0.29749137
138,2026-05-11 16:08:52.970425,1.1581163,0.4256346,0.59582746,2.871983,-1.1334605,-0.59666264
139,2026-05-11 16:08:52.973453,1.1581163,0.4256346,0.59582746,2.871983,-1.1334605,-0.59666264
140,2026-05-11 16:08:52.976160,1.1581163,0.4256346,0.59582746,2.871983,-1.1334605,-0.59666264
141,2026-05-11 16:08:52.979048,1.1581163,0.4256346,0.59582746,2.871983,-1.1334605,-0.59666264
142,2026-05-11 16:08:52.981876,1.1581163,0.4256346,0.59582746,2.871983,-1.1334605,-0.59666264
143,2026-05-11 16:08:52.985088,1.1581163,0.4256346,0.59582746,2.871983,-1.1334605,-0.59666264
144,2026-05-11 16:08:52.987847,1.1581163,0.4256346,0.59582746,2.871983,-1.1334605,-0.59666264
145,2026-05-11 16:08:52.990511,1.1581163,0.4256346,0.59582746,2.871983,-1.1334605,-0.59666264
146,2026-05-11 16:08:52.993135,1.1581163,0.4256346,0.59582746,2.871983,-1.1334605,-0.59666264
147,2026-05-11 16:08:52.995704,1.1581163,0.4256346,0.59582746,2.871983,-1.1334605,-0.59666264
148,2026-05-11 16:08:52.998664,1.1581163,0.4256346,0.59582746,2.871983,-1.1334605,-0.59666264
149,2026-05-11 16:08:53.002215,1.1581163,0.4256346,0.59582746,2.871983,-1.1334605,-0.59666264
150,2026-05-11 16:08:53.005122,1.1581163,0.4256346,0.59582746,2.871983,-1.1334605,-0.59666264
151,2026-05-11 16:08:53.007757,1.1581163,0.4256346,0.59582746,2.871983,-1.1334605,-0.59666264
152,2026-05-11 16:08:53.010550,1.1581163,0.4256346,0.59582746,2.871983,-1.1334605,-0.59666264
153,2026-05-11 16:08:53.013198,1.1581163,0.4256346,0.59582746,2.871983,-1.1334605,-0.59666264
154,2026-05-11 16:08:53.015774,1.1581163,0.4256346,0.59582746,2.871983,-1.1334605,-0.59666264
155,2026-05-11 16:08:53.019181,1.1581163,0.4256346,0.59582746,2.871983,-1.1334605,-0.59666264
156,2026-05-11 16:08:53.021842,1.1581163,0.4256346,0.59582746,2.871983,-1.1334605,-0.59666264
157,2026-05-11 16:08:53.024745,1.1581163,0.4256346,0.59582746,2.871983,-1.1334605,-0.59666264
158,2026-05-11 16:08:53.027500,1.1581163,0.4256346,0.59582746,2.891225,-1.0810788,-0.7939721
159,2026-05-11 16:08:53.030161,1.1581163,0.4256346,0.59582746,2.891225,-1.0810788,-0.7939721
160,2026-05-11 16:08:53.033168,1.1581163,0.4256346,0.59582746,2.891225,-1.0810788,-0.7939721
161,2026-05-11 16:08:53.036528,1.1581163,0.4256346,0.59582746,2.891225,-1.0810788,-0.7939721
162,2026-05-11 16:08:53.039277,1.1581163,0.4256346,0.59582746,2.891225,-1.0810788,-0.7939721
163,2026-05-11 16:08:53.042025,1.1581163,0.4256346,0.59582746,2.891225,-1.0810788,-0.7939721
164,2026-05-11 16:08:53.044832,1.1581163,0.4256346,0.59582746,2.891225,-1.0810788,-0.7939721
165,2026-05-11 16:08:53.047431,1.1581163,0.4256346,0.59582746,2.891225,-1.0810788,-0.7939721
166,2026-05-11 16:08:53.050597,1.1581163,0.4256346,0.59582746,2.891225,-1.0810788,-0.7939721
167,2026-05-11 16:08:53.053344,1.1581163,0.4256346,0.59582746,2.891225,-1.0810788,-0.7939721
168,2026-05-11 16:08:53.055915,1.1581163,0.4256346,0.59582746,2.891225,-1.0810788,-0.7939721
169,2026-05-11 16:08:53.058640,1.1581163,0.4256346,0.59582746,2.891225,-1.0810788,-0.7939721
170,2026-05-11 16:08:53.061228,1.1581163,0.4256346,0.59582746,2.891225,-1.0810788,-0.7939721
171,2026-05-11 16:08:53.063837,1.1581163,0.4256346,0.59582746,2.891225,-1.0810788,-0.7939721
172,2026-05-11 16:08:53.066376,1.1581163,0.4256346,0.59582746,2.891225,-1.0810788,-0.7939721
173,2026-05-11 16:08:53.070062,1.1581163,0.4256346,0.59582746,2.891225,-1.0810788,-0.7939721
174,2026-05-11 16:08:53.072678,1.1581163,0.4256346,0.59582746,2.891225,-1.0810788,-0.7939721
175,2026-05-11 16:08:53.075367,1.1581163,0.4256346,0.59582746,2.891225,-1.0810788,-0.7939721
176,2026-05-11 16:08:53.077929,1.1581163,0.4256346,0.59582746,2.891225,-1.0810788,-0.7939721
177,2026-05-11 16:08:53.080836,1.1581163,0.4256346,0.59582746,2.891225,-1.0810788,-0.7939721
178,2026-05-11 16:08:53.084296,1.1581163,0.4256346,0.59582746,2.891225,-1.0810788,-0.7939721
179,2026-05-11 16:08:53.087032,1.1581163,0.4256346,0.59582746,2.891225,-1.0810788,-0.7939721
180,2026-05-11 16:08:53.089799,1.1581163,0.4256346,0.59582746,2.891225,-1.0810788,-0.7939721
181,2026-05-11 16:08:53.092568,1.1581163,0.4256346,0.59582746,2.891225,-1.0810788,-0.7939721
182,2026-05-11 16:08:53.095304,1.1581163,0.4256346,0.59582746,2.891225,-1.0810788,-0.7939721
183,2026-05-11 16:08:53.097933,1.1581163,0.4256346,0.59582746,2.891225,-1.0810788,-0.7939721
184,2026-05-11 16:08:53.101198,1.1581163,0.4256346,0.59582746,2.891225,-1.0810788,-0.7939721
185,2026-05-11 16:08:53.104043,1.1581163,0.4256346,0.59582746,2.891225,-1.0810788,-0.7939721
186,2026-05-11 16:08:53.106636,1.1581163,0.4256346,0.59582746,2.891225,-1.0810788,-0.7939721
187,2026-05-11 16:08:53.109451,1.1581163,0.4256346,0.59582746,2.891225,-1.0810788,-0.7939721
188,2026-05-11 16:08:53.112233,1.1581163,0.4256346,0.59582746,2.891225,-1.0810788,-0.7939721
189,2026-05-11 16:08:53.114816,1.1581163,0.4256346,0.59582746,2.891225,-1.0810788,-0.7939721
190,2026-05-11 16:08:53.118197,1.1581163,0.4256346,0.59582746,2.891225,-1.0810788,-0.7939721
191,2026-05-11 16:08:53.121079,1.1581163,0.4256346,0.59582746,2.891225,-1.0810788,-0.7939721
192,2026-05-11 16:08:53.123832,1.1581163,0.4256346,0.59582746,2.891225,-1.0810788,-0.7939721
193,2026-05-11 16:08:53.126460,1.1581163,0.4256346,0.59582746,2.891225,-1.0810788,-0.7939721
194,2026-05-11 16:08:53.129019,1.1581163,0.4256346,0.59582746,2.891225,-1.0810788,-0.7939721
195,2026-05-11 16:08:53.131867,1.1581163,0.4256346,0.59582746,2.891225,-1.0810788,-0.7939721
196,2026-05-11 16:08:53.135122,1.1581163,0.4256346,0.59582746,2.891225,-1.0810788,-0.7939721
197,2026-05-11 16:08:53.137996,1.1581163,0.4256346,0.59582746,2.891225,-1.0810788,-0.7939721
198,2026-05-11 16:08:53.140691,1.1581163,0.4256346,0.59582746,2.891225,-1.0810788,-0.7939721
199,2026-05-11 16:08:53.143828,1.1581163,0.4256346,0.59582746,2.891225,-1.0810788,-0.7939721
200,2026-05-11 16:08:53.146631,1.1581163,0.4256346,0.59582746,2.891225,-1.0810788,-0.7939721
201,2026-05-11 16:08:53.149509,0.97511786,0.43630594,0.36922884,2.891225,-1.0810788,-0.7939721
202,2026-05-11 16:08:53.152800,0.97511786,0.43630594,0.36922884,2.891225,-1.0810788,-0.7939721
203,2026-05-11 16:08:53.155432,0.97511786,0.43630594,0.36922884,2.891225,-1.0810788,-0.7939721
204,2026-05-11 16:08:53.158236,0.97511786,0.43630594,0.36922884,2.891225,-1.0810788,-0.7939721
205,2026-05-11 16:08:53.160938,0.97511786,0.43630594,0.36922884,2.891225,-1.0810788,-0.7939721
206,2026-05-11 16:08:53.163751,0.97511786,0.43630594,0.36922884,2.891225,-1.0810788,-0.7939721
207,2026-05-11 16:08:53.166428,0.97511786,0.43630594,0.36922884,2.891225,-1.0810788,-0.7939721
208,2026-05-11 16:08:53.169920,0.97511786,0.43630594,0.36922884,2.891225,-1.0810788,-0.7939721
209,2026-05-11 16:08:53.172722,0.97511786,0.43630594,0.36922884,2.891225,-1.0810788,-0.7939721
210,2026-05-11 16:08:53.175545,0.97511786,0.43630594,0.36922884,2.891225,-1.0810788,-0.7939721
211,2026-05-11 16:08:53.178262,0.97511786,0.43630594,0.36922884,2.891225,-1.0810788,-0.7939721
212,2026-05-11 16:08:53.180849,0.97511786,0.43630594,0.36922884,2.891225,-1.0810788,-0.7939721
213,2026-05-11 16:08:53.184139,0.97511786,0.43630594,0.36922884,2.891225,-1.0810788,-0.7939721
214,2026-05-11 16:08:53.186871,0.97511786,0.43630594,0.36922884,2.891225,-1.0810788,-0.7939721
215,2026-05-11 16:08:53.189602,0.97511786,0.43630594,0.36922884,2.891225,-1.0810788,-0.7939721
216,2026-05-11 16:08:53.192262,0.97511786,0.43630594,0.36922884,2.891225,-1.0810788,-0.7939721
217,2026-05-11 16:08:53.195048,0.97511786,0.43630594,0.36922884,2.891225,-1.0810788,-0.7939721
218,2026-05-11 16:08:53.197951,0.97511786,0.43630594,0.36922884,2.891225,-1.0810788,-0.7939721
219,2026-05-11 16:08:53.201269,0.97511786,0.43630594,0.36922884,2.891225,-1.0810788,-0.7939721
220,2026-05-11 16:08:53.204004,0.97511786,0.43630594,0.36922884,2.891225,-1.0810788,-0.7939721
221,2026-05-11 16:08:53.206750,0.97511786,0.43630594,0.36922884,2.7392726,-1.0703887,-0.929126
222,2026-05-11 16:08:53.209557,0.97511786,0.43630594,0.36922884,2.7392726,-1.0703887,-0.929126
223,2026-05-11 16:08:53.212174,0.97511786,0.43630594,0.36922884,2.7392726,-1.0703887,-0.929126
224,2026-05-11 16:08:53.214919,0.97511786,0.43630594,0.36922884,2.7392726,-1.0703887,-0.929126
225,2026-05-11 16:08:53.218044,0.97511786,0.43630594,0.36922884,2.7392726,-1.0703887,-0.929126
226,2026-05-11 16:08:53.220873,0.97511786,0.43630594,0.36922884,2.7392726,-1.0703887,-0.929126
227,2026-05-11 16:08:53.223463,0.97511786,0.43630594,0.36922884,2.7392726,-1.0703887,-0.929126
228,2026-05-11 16:08:53.226223,0.97511786,0.43630594,0.36922884,2.7392726,-1.0703887,-0.929126
229,2026-05-11 16:08:53.228801,0.97511786,0.43630594,0.36922884,2.7392726,-1.0703887,-0.929126
230,2026-05-11 16:08:53.231516,0.97511786,0.43630594,0.36922884,2.7392726,-1.0703887,-0.929126
231,2026-05-11 16:08:53.234465,0.97511786,0.43630594,0.36922884,2.7392726,-1.0703887,-0.929126
232,2026-05-11 16:08:53.237277,0.8578549,0.43941587,0.22513509,2.7392726,-1.0703887,-0.929126
233,2026-05-11 16:08:53.239950,0.8578549,0.43941587,0.22513509,2.7392726,-1.0703887,-0.929126
234,2026-05-11 16:08:53.242557,0.8578549,0.43941587,0.22513509,2.7392726,-1.0703887,-0.929126
235,2026-05-11 16:08:53.245253,0.8578549,0.43941587,0.22513509,2.7392726,-1.0703887,-0.929126
236,2026-05-11 16:08:53.247804,0.8578549,0.43941587,0.22513509,2.7392726,-1.0703887,-0.929126
237,2026-05-11 16:08:53.250879,0.8578549,0.43941587,0.22513509,2.7392726,-1.0703887,-0.929126
238,2026-05-11 16:08:53.253536,0.8578549,0.43941587,0.22513509,2.7392726,-1.0703887,-0.929126
239,2026-05-11 16:08:53.256090,0.8578549,0.43941587,0.22513509,2.7392726,-1.0703887,-0.929126
240,2026-05-11 16:08:53.258827,0.8578549,0.43941587,0.22513509,2.7392726,-1.0703887,-0.929126
241,2026-05-11 16:08:53.261470,0.8578549,0.43941587,0.22513509,2.7392726,-1.0703887,-0.929126
242,2026-05-11 16:08:53.264093,0.8578549,0.43941587,0.22513509,2.7392726,-1.0703887,-0.929126
243,2026-05-11 16:08:53.267053,0.8578549,0.43941587,0.22513509,2.7392726,-1.0703887,-0.929126
244,2026-05-11 16:08:53.269804,0.8578549,0.43941587,0.22513509,2.7392726,-1.0703887,-0.929126
245,2026-05-11 16:08:53.272366,0.8578549,0.43941587,0.22513509,2.7392726,-1.0703887,-0.929126
246,2026-05-11 16:08:53.274898,0.8578549,0.43941587,0.22513509,2.7392726,-1.0703887,-0.929126
247,2026-05-11 16:08:53.277769,0.8578549,0.43941587,0.22513509,2.7392726,-1.0703887,-0.929126
248,2026-05-11 16:08:53.280508,0.8578549,0.43941587,0.22513509,2.7392726,-1.0703887,-0.929126
249,2026-05-11 16:08:53.283551,0.8578549,0.43941587,0.22513509,2.7392726,-1.0703887,-0.929126
250,2026-05-11 16:08:53.286350,0.8578549,0.43941587,0.22513509,2.7392726,-1.0703887,-0.929126
251,2026-05-11 16:08:53.289066,0.8578549,0.43941587,0.22513509,2.7392726,-1.0703887,-0.929126
252,2026-05-11 16:08:53.291645,0.8578549,0.43941587,0.22513509,2.7392726,-1.0703887,-0.929126
253,2026-05-11 16:08:53.294273,0.8578549,0.43941587,0.22513509,2.7392726,-1.0703887,-0.929126
254,2026-05-11 16:08:53.296794,0.8578549,0.43941587,0.22513509,2.7392726,-1.0703887,-0.929126
255,2026-05-11 16:08:53.299391,0.8578549,0.43941587,0.22513509,2.7392726,-1.0703887,-0.929126
256,2026-05-11 16:08:53.302438,0.8578549,0.43941587,0.22513509,2.7392726,-1.0703887,-0.929126
257,2026-05-11 16:08:53.305066,0.8578549,0.43941587,0.22513509,2.7392726,-1.0703887,-0.929126
258,2026-05-11 16:08:53.307815,0.8578549,0.43941587,0.22513509,2.7392726,-1.0703887,-0.929126
259,2026-05-11 16:08:53.310454,0.8578549,0.43941587,0.22513509,2.7392726,-1.0703887,-0.929126
260,2026-05-11 16:08:53.313174,0.8578549,0.43941587,0.22513509,2.7392726,-1.0703887,-0.929126
261,2026-05-11 16:08:53.315757,0.8578549,0.43941587,0.22513509,2.7392726,-1.0703887,-0.929126
262,2026-05-11 16:08:53.318864,0.8578549,0.43941587,0.22513509,2.7392726,-1.0703887,-0.929126
263,2026-05-11 16:08:53.321515,0.8578549,0.43941587,0.22513509,2.7392726,-1.0703887,-0.929126
264,2026-05-11 16:08:53.324098,0.8578549,0.43941587,0.22513509,2.7392726,-1.0703887,-0.929126
265,2026-05-11 16:08:53.326852,0.8578549,0.43941587,0.22513509,2.7392726,-1.0703887,-0.929126
266,2026-05-11 16:08:53.329449,0.8578549,0.43941587,0.22513509,2.7392726,-1.0703887,-0.929126
267,2026-05-11 16:08:53.332205,0.8578549,0.43941587,0.22513509,2.7392726,-1.0703887,-0.929126
268,2026-05-11 16:08:53.335128,0.8578549,0.43941587,0.22513509,2.7392726,-1.0703887,-0.929126
269,2026-05-11 16:08:53.337987,0.8578549,0.43941587,0.22513509,2.7392726,-1.0703887,-0.929126
270,2026-05-11 16:08:53.340548,0.8578549,0.43941587,0.22513509,2.7392726,-1.0703887,-0.929126
271,2026-05-11 16:08:53.343073,0.8578549,0.43941587,0.22513509,2.7392726,-1.0703887,-0.929126
272,2026-05-11 16:08:53.345665,0.8578549,0.43941587,0.22513509,2.7392726,-1.0703887,-0.929126
273,2026-05-11 16:08:53.348186,0.8578549,0.43941587,0.22513509,2.7392726,-1.0703887,-0.929126
274,2026-05-11 16:08:53.351121,0.8578549,0.43941587,0.22513509,2.7392726,-1.0703887,-0.929126
275,2026-05-11 16:08:53.353869,0.8578549,0.43941587,0.22513509,2.7392726,-1.0703887,-0.929126
276,2026-05-11 16:08:53.356409,0.8578549,0.43941587,0.22513509,2.7392726,-1.0703887,-0.929126
277,2026-05-11 16:08:53.358969,0.8578549,0.43941587,0.22513509,2.7392726,-1.0703887,-0.929126
278,2026-05-11 16:08:53.361712,0.8578549,0.43941587,0.22513509,2.7392726,-1.0703887,-0.929126
279,2026-05-11 16:08:53.364282,0.8578549,0.43941587,0.22513509,2.7392726,-1.0703887,-0.929126
280,2026-05-11 16:08:53.367471,0.8578549,0.43941587,0.22513509,2.7392726,-1.0703887,-0.929126
281,2026-05-11 16:08:53.370207,0.8578549,0.43941587,0.22513509,2.7392726,-1.0703887,-0.929126
282,2026-05-11 16:08:53.372809,0.8578549,0.43941587,0.22513509,2.7392726,-1.0703887,-0.929126
283,2026-05-11 16:08:53.375517,0.8578549,0.43941587,0.22513509,2.7392726,-1.0703887,-0.929126
284,2026-05-11 16:08:53.378113,0.8578549,0.43941587,0.22513509,2.7392726,-1.0703887,-0.929126
285,2026-05-11 16:08:53.380780,0.8578549,0.43941587,0.22513509,2.7392726,-1.0703887,-0.929126
286,2026-05-11 16:08:53.383815,0.8578549,0.43941587,0.22513509,2.7392726,-1.0703887,-0.929126
287,2026-05-11 16:08:53.386673,0.8578549,0.43941587,0.22513509,2.7392726,-1.0703887,-0.929126
288,2026-05-11 16:08:53.389274,0.8578549,0.43941587,0.22513509,2.7392726,-1.0703887,-0.929126
289,2026-05-11 16:08:53.392043,0.8578549,0.43941587,0.22513509,2.7392726,-1.0703887,-0.929126
290,2026-05-11 16:08:53.394630,0.8578549,0.43941587,0.22513509,2.7392726,-1.0703887,-0.929126
291,2026-05-11 16:08:53.397215,0.8578549,0.43941587,0.22513509,2.7392726,-1.0703887,-0.929126
292,2026-05-11 16:08:53.400303,0.73370135,0.4751497,0.09232246,1.9263636,-1.1539245,-1.1615603
293,2026-05-11 16:08:53.403322,0.73370135,0.4751497,0.09232246,1.9263636,-1.1539245,-1.1615603
294,2026-05-11 16:08:53.405921,0.73370135,0.4751497,0.09232246,1.9263636,-1.1539245,-1.1615603
295,2026-05-11 16:08:53.408498,0.73370135,0.4751497,0.09232246,1.9263636,-1.1539245,-1.1615603
296,2026-05-11 16:08:53.411132,0.73370135,0.4751497,0.09232246,1.9263636,-1.1539245,-1.1615603
297,2026-05-11 16:08:53.413674,0.73370135,0.4751497,0.09232246,1.9263636,-1.1539245,-1.1615603
298,2026-05-11 16:08:53.416354,0.73370135,0.4751497,0.09232246,1.9263636,-1.1539245,-1.1615603
299,2026-05-11 16:08:53.419542,0.73370135,0.4751497,0.09232246,1.9263636,-1.1539245,-1.1615603
300,2026-05-11 16:08:53.422196,0.73370135,0.4751497,0.09232246,1.9263636,-1.1539245,-1.1615603
301,2026-05-11 16:08:53.424827,0.73370135,0.4751497,0.09232246,1.9263636,-1.1539245,-1.1615603
302,2026-05-11 16:08:53.427405,0.73370135,0.4751497,0.09232246,1.9263636,-1.1539245,-1.1615603
303,2026-05-11 16:08:53.430123,0.73370135,0.4751497,0.09232246,1.9263636,-1.1539245,-1.1615603
304,2026-05-11 16:08:53.432759,0.73370135,0.4751497,0.09232246,1.9263636,-1.1539245,-1.1615603
305,2026-05-11 16:08:53.436116,0.73370135,0.4751497,0.09232246,1.9263636,-1.1539245,-1.1615603
306,2026-05-11 16:08:53.438921,0.73370135,0.4751497,0.09232246,1.9263636,-1.1539245,-1.1615603
307,2026-05-11 16:08:53.441634,0.73370135,0.4751497,0.09232246,1.9263636,-1.1539245,-1.1615603
308,2026-05-11 16:08:53.444230,0.5600937,0.51679844,0.056222793,1.9263636,-1.1539245,-1.1615603
309,2026-05-11 16:08:53.447054,0.5600937,0.51679844,0.056222793,1.9263636,-1.1539245,-1.1615603
310,2026-05-11 16:08:53.449813,0.5600937,0.51679844,0.056222793,1.9263636,-1.1539245,-1.1615603
311,2026-05-11 16:08:53.453338,0.37654635,0.53314084,0.06915038,1.9263636,-1.1539245,-1.1615603
312,2026-05-11 16:08:53.456268,0.37654635,0.53314084,0.06915038,1.9263636,-1.1539245,-1.1615603
313,2026-05-11 16:08:53.458969,0.37654635,0.53314084,0.06915038,1.9263636,-1.1539245,-1.1615603
314,2026-05-11 16:08:53.461622,0.37654635,0.53314084,0.06915038,1.9263636,-1.1539245,-1.1615603
315,2026-05-11 16:08:53.464197,0.37654635,0.53314084,0.06915038,1.9263636,-1.1539245,-1.1615603
316,2026-05-11 16:08:53.466745,0.37654635,0.53314084,0.06915038,1.9263636,-1.1539245,-1.1615603
317,2026-05-11 16:08:53.470406,0.37654635,0.53314084,0.06915038,1.9263636,-1.1539245,-1.1615603
318,2026-05-11 16:08:53.473252,0.37654635,0.53314084,0.06915038,1.9263636,-1.1539245,-1.1615603
319,2026-05-11 16:08:53.475960,0.37654635,0.53314084,0.06915038,1.9263636,-1.1539245,-1.1615603
320,2026-05-11 16:08:53.478749,0.37654635,0.53314084,0.06915038,1.9263636,-1.1539245,-1.1615603
321,2026-05-11 16:08:53.481290,0.37654635,0.53314084,0.06915038,1.9263636,-1.1539245,-1.1615603
322,2026-05-11 16:08:53.484391,0.37654635,0.53314084,0.06915038,1.9263636,-1.1539245,-1.1615603
323,2026-05-11 16:08:53.487159,0.37654635,0.53314084,0.06915038,1.9263636,-1.1539245,-1.1615603
324,2026-05-11 16:08:53.489725,0.37654635,0.53314084,0.06915038,1.9263636,-1.1539245,-1.1615603
325,2026-05-11 16:08:53.492493,0.37654635,0.53314084,0.06915038,1.9263636,-1.1539245,-1.1615603
326,2026-05-11 16:08:53.495091,0.37654635,0.53314084,0.06915038,1.9263636,-1.1539245,-1.1615603
327,2026-05-11 16:08:53.497729,0.37654635,0.53314084,0.06915038,1.9263636,-1.1539245,-1.1615603
328,2026-05-11 16:08:53.500753,0.37654635,0.53314084,0.06915038,1.9263636,-1.1539245,-1.1615603
329,2026-05-11 16:08:53.503509,0.37654635,0.53314084,0.06915038,1.9263636,-1.1539245,-1.1615603
330,2026-05-11 16:08:53.506077,0.37654635,0.53314084,0.06915038,1.9263636,-1.1539245,-1.1615603
331,2026-05-11 16:08:53.508796,0.37654635,0.53314084,0.06915038,1.9263636,-1.1539245,-1.1615603
332,2026-05-11 16:08:53.511389,0.37654635,0.53314084,0.06915038,1.9263636,-1.1539245,-1.1615603
333,2026-05-11 16:08:53.514117,0.37654635,0.53314084,0.06915038,1.9263636,-1.1539245,-1.1615603
334,2026-05-11 16:08:53.517092,0.37654635,0.53314084,0.06915038,1.9263636,-1.1539245,-1.1615603
335,2026-05-11 16:08:53.520044,0.37654635,0.53314084,0.06915038,1.9263636,-1.1539245,-1.1615603
336,2026-05-11 16:08:53.522729,0.37654635,0.53314084,0.06915038,1.9263636,-1.1539245,-1.1615603
337,2026-05-11 16:08:53.525457,0.37654635,0.53314084,0.06915038,1.9263636,-1.1539245,-1.1615603
338,2026-05-11 16:08:53.528077,0.37654635,0.53314084,0.06915038,1.9263636,-1.1539245,-1.1615603
339,2026-05-11 16:08:53.530814,0.37654635,0.53314084,0.06915038,1.9263636,-1.1539245,-1.1615603
340,2026-05-11 16:08:53.533856,0.37654635,0.53314084,0.06915038,1.9263636,-1.1539245,-1.1615603
341,2026-05-11 16:08:53.536756,0.37654635,0.53314084,0.06915038,1.9263636,-1.1539245,-1.1615603
342,2026-05-11 16:08:53.539388,0.37654635,0.53314084,0.06915038,1.9263636,-1.1539245,-1.1615603
343,2026-05-11 16:08:53.541945,0.37654635,0.53314084,0.06915038,1.9263636,-1.1539245,-1.1615603
344,2026-05-11 16:08:53.544716,0.37654635,0.53314084,0.06915038,1.9263636,-1.1539245,-1.1615603
345,2026-05-11 16:08:53.547322,0.37654635,0.53314084,0.06915038,1.9263636,-1.1539245,-1.1615603
346,2026-05-11 16:08:53.550894,0.37654635,0.53314084,0.06915038,1.9263636,-1.1539245,-1.1615603
347,2026-05-11 16:08:53.553894,0.37654635,0.53314084,0.06915038,1.9263636,-1.1539245,-1.1615603
348,2026-05-11 16:08:53.556545,0.37654635,0.53314084,0.06915038,1.9263636,-1.1539245,-1.1615603
349,2026-05-11 16:08:53.559134,0.37654635,0.53314084,0.06915038,1.9263636,-1.1539245,-1.1615603
350,2026-05-11 16:08:53.561972,0.37654635,0.53314084,0.06915038,1.9263636,-1.1539245,-1.1615603
351,2026-05-11 16:08:53.564633,0.37654635,0.53314084,0.06915038,1.9263636,-1.1539245,-1.1615603
352,2026-05-11 16:08:53.567669,0.37654635,0.53314084,0.06915038,1.9263636,-1.1539245,-1.1615603
353,2026-05-11 16:08:53.570459,0.37654635,0.53314084,0.06915038,1.9263636,-1.1539245,-1.1615603
354,2026-05-11 16:08:53.573139,0.37654635,0.53314084,0.06915038,1.9263636,-1.1539245,-1.1615603
355,2026-05-11 16:08:53.575689,0.37654635,0.53314084,0.06915038,1.9263636,-1.1539245,-1.1615603
356,2026-05-11 16:08:53.578348,0.37654635,0.53314084,0.06915038,1.9263636,-1.1539245,-1.1615603
357,2026-05-11 16:08:53.580932,0.37654635,0.53314084,0.06915038,1.9263636,-1.1539245,-1.1615603
358,2026-05-11 16:08:53.583744,0.37654635,0.53314084,0.06915038,1.9263636,-1.1539245,-1.1615603
359,2026-05-11 16:08:53.586569,0.37654635,0.53314084,0.06915038,1.9263636,-1.1539245,-1.1615603
360,2026-05-11 16:08:53.589174,0.37654635,0.53314084,0.06915038,1.9263636,-1.1539245,-1.1615603
361,2026-05-11 16:08:53.591764,0.37654635,0.53314084,0.06915038,1.9263636,-1.1539245,-1.1615603
362,2026-05-11 16:08:53.594352,0.37654635,0.53314084,0.06915038,1.9263636,-1.1539245,-1.1615603
363,2026-05-11 16:08:53.597137,0.37654635,0.53314084,0.06915038,1.9263636,-1.1539245,-1.1615603
364,2026-05-11 16:08:53.599848,0.37654635,0.53314084,0.06915038,1.9263636,-1.1539245,-1.1615603
365,2026-05-11 16:08:53.603225,0.37654635,0.53314084,0.06915038,1.9263636,-1.1539245,-1.1615603
366,2026-05-11 16:08:53.605815,0.37654635,0.53314084,0.06915038,1.9263636,-1.1539245,-1.1615603
367,2026-05-11 16:08:53.608639,0.37654635,0.53314084,0.06915038,1.9263636,-1.1539245,-1.1615603
368,2026-05-11 16:08:53.611314,0.37654635,0.53314084,0.06915038,1.9263636,-1.1539245,-1.1615603
369,2026-05-11 16:08:53.613887,0.37654635,0.53314084,0.06915038,1.9263636,-1.1539245,-1.1615603
370,2026-05-11 16:08:53.643916,1.288063,-0.20165811,-0.40142587,-0.3801109,-0.5242751,-2.581822
371,2026-05-11 16:08:53.654033,1.288063,-0.20165811,-0.40142587,-0.3801109,-0.5242751,-2.581822
372,2026-05-11 16:08:53.657259,1.288063,-0.20165811,-0.40142587,-0.3801109,-0.5242751,-2.581822
373,2026-05-11 16:08:53.659972,1.288063,-0.20165811,-0.40142587,-0.3801109,-0.5242751,-2.581822
374,2026-05-11 16:08:53.662768,1.288063,-0.20165811,-0.40142587,-0.3801109,-0.5242751,-2.581822
375,2026-05-11 16:08:53.665529,1.288063,-0.20165811,-0.40142587,-0.3801109,-0.5242751,-2.581822
376,2026-05-11 16:08:53.668783,1.288063,-0.20165811,-0.40142587,-0.3801109,-0.5242751,-2.581822
377,2026-05-11 16:08:53.671452,1.288063,-0.20165811,-0.40142587,-0.3801109,-0.5242751,-2.581822
378,2026-05-11 16:08:53.674172,1.288063,-0.20165811,-0.40142587,-0.3801109,-0.5242751,-2.581822
379,2026-05-11 16:08:53.676748,1.288063,-0.20165811,-0.40142587,-0.3801109,-0.5242751,-2.581822
380,2026-05-11 16:08:53.679481,1.288063,-0.20165811,-0.40142587,-0.3801109,-0.5242751,-2.581822
381,2026-05-11 16:08:53.682054,1.288063,-0.20165811,-0.40142587,-0.3801109,-0.5242751,-2.581822
382,2026-05-11 16:08:53.685019,1.288063,-0.20165811,-0.40142587,-0.3801109,-0.5242751,-2.581822
383,2026-05-11 16:08:53.687807,1.288063,-0.20165811,-0.40142587,-0.3801109,-0.5242751,-2.581822
384,2026-05-11 16:08:53.690438,1.288063,-0.20165811,-0.40142587,-0.3801109,-0.5242751,-2.581822
385,2026-05-11 16:08:53.692976,1.288063,-0.20165811,-0.40142587,-0.3801109,-0.5242751,-2.581822
386,2026-05-11 16:08:53.695842,1.288063,-0.20165811,-0.40142587,-0.3801109,-0.5242751,-2.581822
387,2026-05-11 16:08:53.698521,1.288063,-0.20165811,-0.40142587,-0.3801109,-0.5242751,-2.581822
388,2026-05-11 16:08:53.701725,1.288063,-0.20165811,-0.40142587,-0.3801109,-0.5242751,-2.581822
389,2026-05-11 16:08:53.704455,1.288063,-0.20165811,-0.40142587,-0.3801109,-0.5242751,-2.581822
390,2026-05-11 16:08:53.707091,1.288063,-0.20165811,-0.40142587,-0.3801109,-0.5242751,-2.581822
391,2026-05-11 16:08:53.709647,1.288063,-0.20165811,-0.40142587,-0.3801109,-0.5242751,-2.581822
392,2026-05-11 16:08:53.712180,1.288063,-0.20165811,-0.40142587,-0.3801109,-0.5242751,-2.581822
393,2026-05-11 16:08:53.714863,1.288063,-0.20165811,-0.40142587,-0.3801109,-0.5242751,-2.581822
394,2026-05-11 16:08:53.717887,1.288063,-0.20165811,-0.40142587,-0.3801109,-0.5242751,-2.581822
395,2026-05-11 16:08:53.720635,1.288063,-0.20165811,-0.40142587,-0.3801109,-0.5242751,-2.581822
396,2026-05-11 16:08:53.723216,1.288063,-0.20165811,-0.40142587,-0.3801109,-0.5242751,-2.581822
397,2026-05-11 16:08:53.725887,1.288063,-0.20165811,-0.40142587,-0.3801109,-0.5242751,-2.581822
398,2026-05-11 16:08:53.728438,1.288063,-0.20165811,-0.40142587,-0.3801109,-0.5242751,-2.581822
399,2026-05-11 16:08:53.730995,1.288063,-0.20165811,-0.40142587,-0.3801109,-0.5242751,-2.581822
400,2026-05-11 16:08:53.733839,1.288063,-0.20165811,-0.40142587,-0.3801109,-0.5242751,-2.581822
401,2026-05-11 16:08:53.736716,1.288063,-0.20165811,-0.40142587,-0.3801109,-0.5242751,-2.581822
402,2026-05-11 16:08:53.739277,1.288063,-0.20165811,-0.40142587,-0.3801109,-0.5242751,-2.581822
403,2026-05-11 16:08:53.741805,1.288063,-0.20165811,-0.40142587,-0.3801109,-0.5242751,-2.581822
404,2026-05-11 16:08:53.744634,1.288063,-0.20165811,-0.40142587,-0.3801109,-0.5242751,-2.581822
405,2026-05-11 16:08:53.747223,1.288063,-0.20165811,-0.40142587,-0.3801109,-0.5242751,-2.581822
406,2026-05-11 16:08:53.750225,1.288063,-0.20165811,-0.40142587,-0.3801109,-0.5242751,-2.581822
407,2026-05-11 16:08:53.753191,1.288063,-0.20165811,-0.40142587,-0.3801109,-0.5242751,-2.581822
408,2026-05-11 16:08:53.755808,1.288063,-0.20165811,-0.40142587,-0.3801109,-0.5242751,-2.581822
409,2026-05-11 16:08:53.758356,1.288063,-0.20165811,-0.40142587,-0.3801109,-0.5242751,-2.581822
410,2026-05-11 16:08:53.761105,1.288063,-0.20165811,-0.40142587,-0.3801109,-0.5242751,-2.581822
411,2026-05-11 16:08:53.763703,1.288063,-0.20165811,-0.40142587,-0.3801109,-0.5242751,-2.581822
412,2026-05-11 16:08:53.766824,1.288063,-0.20165811,-0.40142587,-0.3801109,-0.5242751,-2.581822
413,2026-05-11 16:08:53.769492,1.288063,-0.20165811,-0.40142587,-0.3801109,-0.5242751,-2.581822
414,2026-05-11 16:08:53.772078,1.288063,-0.20165811,-0.40142587,-0.3801109,-0.5242751,-2.581822
415,2026-05-11 16:08:53.774643,1.288063,-0.20165811,-0.40142587,-0.3801109,-0.5242751,-2.581822
416,2026-05-11 16:08:53.777166,1.288063,-0.20165811,-0.40142587,-0.3801109,-0.5242751,-2.581822
417,2026-05-11 16:08:53.779959,1.288063,-0.20165811,-0.40142587,-0.3801109,-0.5242751,-2.581822
418,2026-05-11 16:08:53.782650,1.288063,-0.20165811,-0.40142587,-0.3801109,-0.5242751,-2.581822
419,2026-05-11 16:08:53.785754,1.288063,-0.20165811,-0.40142587,-0.3801109,-0.5242751,-2.581822
420,2026-05-11 16:08:53.788475,1.288063,-0.20165811,-0.40142587,-0.3801109,-0.5242751,-2.581822
421,2026-05-11 16:08:53.791268,1.288063,-0.20165811,-0.40142587,-0.3801109,-0.5242751,-2.581822
422,2026-05-11 16:08:53.793899,1.288063,-0.20165811,-0.40142587,-0.3801109,-0.5242751,-2.581822
423,2026-05-11 16:08:53.796618,1.288063,-0.20165811,-0.40142587,-0.3801109,-0.5242751,-2.581822
424,2026-05-11 16:08:53.799207,1.288063,-0.20165811,-0.40142587,-0.3801109,-0.5242751,-2.581822
425,2026-05-11 16:08:53.802370,1.288063,-0.20165811,-0.40142587,-0.3801109,-0.5242751,-2.581822
426,2026-05-11 16:08:53.805228,1.288063,-0.20165811,-0.40142587,-0.3801109,-0.5242751,-2.581822
427,2026-05-11 16:08:53.807806,1.288063,-0.20165811,-0.40142587,-0.3801109,-0.5242751,-2.581822
428,2026-05-11 16:08:53.810460,1.288063,-0.20165811,-0.40142587,-0.3801109,-0.5242751,-2.581822
429,2026-05-11 16:08:53.813158,1.288063,-0.20165811,-0.40142587,-0.3801109,-0.5242751,-2.581822
430,2026-05-11 16:08:53.816075,1.2233031,-0.27617463,-0.43453756,-0.3801109,-0.5242751,-2.581822
431,2026-05-11 16:08:53.819144,1.2233031,-0.27617463,-0.43453756,-0.3801109,-0.5242751,-2.581822
432,2026-05-11 16:08:53.822059,1.2233031,-0.27617463,-0.43453756,-0.3801109,-0.5242751,-2.581822
433,2026-05-11 16:08:53.824770,1.2233031,-0.27617463,-0.43453756,-0.3801109,-0.5242751,-2.581822
434,2026-05-11 16:08:53.827603,1.2233031,-0.27617463,-0.43453756,-0.3801109,-0.5242751,-2.581822
435,2026-05-11 16:08:53.830370,1.2233031,-0.27617463,-0.43453756,-0.3801109,-0.5242751,-2.581822
436,2026-05-11 16:08:53.833600,1.2233031,-0.27617463,-0.43453756,-0.3801109,-0.5242751,-2.581822
437,2026-05-11 16:08:53.836439,1.2233031,-0.27617463,-0.43453756,-0.3801109,-0.5242751,-2.581822
438,2026-05-11 16:08:53.839056,1.2233031,-0.27617463,-0.43453756,-0.3801109,-0.5242751,-2.581822
439,2026-05-11 16:08:53.841706,1.2233031,-0.27617463,-0.43453756,-0.3801109,-0.5242751,-2.581822
440,2026-05-11 16:08:53.844292,1.2233031,-0.27617463,-0.43453756,-0.3801109,-0.5242751,-2.581822
441,2026-05-11 16:08:53.846854,1.2233031,-0.27617463,-0.43453756,-0.3801109,-0.5242751,-2.581822
442,2026-05-11 16:08:53.850235,1.2233031,-0.27617463,-0.43453756,-0.3801109,-0.5242751,-2.581822
443,2026-05-11 16:08:53.853478,1.2233031,-0.27617463,-0.43453756,-0.3801109,-0.5242751,-2.581822
444,2026-05-11 16:08:53.856658,1.2233031,-0.27617463,-0.43453756,-0.3801109,-0.5242751,-2.581822
445,2026-05-11 16:08:53.859616,1.2233031,-0.27617463,-0.43453756,-0.3801109,-0.5242751,-2.581822
446,2026-05-11 16:08:53.862618,1.2233031,-0.27617463,-0.43453756,-0.3801109,-0.5242751,-2.581822
447,2026-05-11 16:08:53.865233,1.2233031,-0.27617463,-0.43453756,-0.3801109,-0.5242751,-2.581822
448,2026-05-11 16:08:53.868222,1.2233031,-0.27617463,-0.43453756,-0.3801109,-0.5242751,-2.581822
449,2026-05-11 16:08:53.870956,1.2233031,-0.27617463,-0.43453756,-0.3801109,-0.5242751,-2.581822
450,2026-05-11 16:08:53.873554,1.2233031,-0.27617463,-0.43453756,-0.3801109,-0.5242751,-2.581822
451,2026-05-11 16:08:53.876157,1.2233031,-0.27617463,-0.43453756,-0.17486018,-0.7279987,-2.67223
452,2026-05-11 16:08:53.878827,1.2233031,-0.27617463,-0.43453756,-0.17486018,-0.7279987,-2.67223
453,2026-05-11 16:08:53.881513,1.1268951,-0.36453345,-0.5096029,-0.17486018,-0.7279987,-2.67223
454,2026-05-11 16:08:53.884246,1.1268951,-0.36453345,-0.5096029,-0.17486018,-0.7279987,-2.67223
455,2026-05-11 16:08:53.887435,1.1268951,-0.36453345,-0.5096029,-0.17486018,-0.7279987,-2.67223
456,2026-05-11 16:08:53.890358,1.1268951,-0.36453345,-0.5096029,-0.17486018,-0.7279987,-2.67223
457,2026-05-11 16:08:53.892967,1.1268951,-0.36453345,-0.5096029,-0.17486018,-0.7279987,-2.67223
458,2026-05-11 16:08:53.895563,1.1268951,-0.36453345,-0.5096029,-0.17486018,-0.7279987,-2.67223
459,2026-05-11 16:08:53.898332,1.1268951,-0.36453345,-0.5096029,-0.17486018,-0.7279987,-2.67223
460,2026-05-11 16:08:53.901201,1.1268951,-0.36453345,-0.5096029,-0.17486018,-0.7279987,-2.67223
461,2026-05-11 16:08:53.904624,1.1268951,-0.36453345,-0.5096029,-0.17486018,-0.7279987,-2.67223
462,2026-05-11 16:08:53.907460,1.1268951,-0.36453345,-0.5096029,-0.17486018,-0.7279987,-2.67223
463,2026-05-11 16:08:53.910081,1.1268951,-0.36453345,-0.5096029,-0.17486018,-0.7279987,-2.67223
464,2026-05-11 16:08:53.912664,1.1268951,-0.36453345,-0.5096029,-0.17486018,-0.7279987,-2.67223
465,2026-05-11 16:08:53.915347,1.1268951,-0.36453345,-0.5096029,-0.17486018,-0.7279987,-2.67223
466,2026-05-11 16:08:53.918256,1.1268951,-0.36453345,-0.5096029,-0.17486018,-0.7279987,-2.67223
467,2026-05-11 16:08:53.921018,1.1268951,-0.36453345,-0.5096029,-0.17486018,-0.7279987,-2.67223
468,2026-05-11 16:08:53.923702,1.1268951,-0.36453345,-0.5096029,-0.17486018,-0.7279987,-2.67223
469,2026-05-11 16:08:53.926286,1.1268951,-0.36453345,-0.5096029,-0.17486018,-0.7279987,-2.67223
470,2026-05-11 16:08:53.928886,1.1268951,-0.36453345,-0.5096029,-0.17486018,-0.7279987,-2.67223
471,2026-05-11 16:08:53.931716,1.1268951,-0.36453345,-0.5096029,-0.17486018,-0.7279987,-2.67223
472,2026-05-11 16:08:53.934791,1.1268951,-0.36453345,-0.5096029,-0.019700404,-0.84849185,-2.6456573
473,2026-05-11 16:08:53.937656,0.913346,-0.40758476,-0.79882705,-0.019700404,-0.84849185,-2.6456573
474,2026-05-11 16:08:53.940383,0.913346,-0.40758476,-0.79882705,-0.019700404,-0.84849185,-2.6456573
475,2026-05-11 16:08:53.943033,0.913346,-0.40758476,-0.79882705,-0.019700404,-0.84849185,-2.6456573
476,2026-05-11 16:08:53.945593,0.913346,-0.40758476,-0.79882705,-0.019700404,-0.84849185,-2.6456573
477,2026-05-11 16:08:53.948277,0.913346,-0.40758476,-0.79882705,-0.019700404,-0.84849185,-2.6456573
478,2026-05-11 16:08:53.951342,0.913346,-0.40758476,-0.79882705,-0.019700404,-0.84849185,-2.6456573
479,2026-05-11 16:08:53.954160,0.913346,-0.40758476,-0.79882705,-0.019700404,-0.84849185,-2.6456573
480,2026-05-11 16:08:53.956745,0.913346,-0.40758476,-0.79882705,-0.019700404,-0.84849185,-2.6456573
481,2026-05-11 16:08:53.959312,0.913346,-0.40758476,-0.79882705,-0.019700404,-0.84849185,-2.6456573
482,2026-05-11 16:08:53.962023,0.913346,-0.40758476,-0.79882705,-0.019700404,-0.84849185,-2.6456573
483,2026-05-11 16:08:53.964602,0.913346,-0.40758476,-0.79882705,-0.019700404,-0.84849185,-2.6456573
484,2026-05-11 16:08:53.967634,0.913346,-0.40758476,-0.79882705,-0.019700404,-0.84849185,-2.6456573
485,2026-05-11 16:08:53.970441,0.913346,-0.40758476,-0.79882705,-0.019700404,-0.84849185,-2.6456573
486,2026-05-11 16:08:53.973031,0.913346,-0.40758476,-0.79882705,-0.019700404,-0.84849185,-2.6456573
487,2026-05-11 16:08:53.975862,0.913346,-0.40758476,-0.79882705,-0.019700404,-0.84849185,-2.6456573
488,2026-05-11 16:08:53.978463,0.913346,-0.40758476,-0.79882705,-0.019700404,-0.84849185,-2.6456573
489,2026-05-11 16:08:53.981152,0.913346,-0.40758476,-0.79882705,-0.019700404,-0.84849185,-2.6456573
490,2026-05-11 16:08:53.984087,0.913346,-0.40758476,-0.79882705,-0.5123632,-0.5563455,-1.9370537
491,2026-05-11 16:08:53.986902,0.913346,-0.40758476,-0.79882705,-0.5123632,-0.5563455,-1.9370537
492,2026-05-11 16:08:53.989490,0.913346,-0.40758476,-0.79882705,-0.5123632,-0.5563455,-1.9370537
493,2026-05-11 16:08:53.992204,0.913346,-0.40758476,-0.79882705,-0.5123632,-0.5563455,-1.9370537
494,2026-05-11 16:08:53.994761,0.913346,-0.40758476,-0.79882705,-0.5123632,-0.5563455,-1.9370537
495,2026-05-11 16:08:53.997502,0.913346,-0.40758476,-0.79882705,-0.5123632,-0.5563455,-1.9370537
496,2026-05-11 16:08:54.000486,0.913346,-0.40758476,-0.79882705,-0.5123632,-0.5563455,-1.9370537
497,2026-05-11 16:08:54.003440,0.913346,-0.40758476,-0.79882705,-0.5123632,-0.5563455,-1.9370537
498,2026-05-11 16:08:54.006155,0.913346,-0.40758476,-0.79882705,-0.5123632,-0.5563455,-1.9370537
499,2026-05-11 16:08:54.008754,0.913346,-0.40758476,-0.79882705,-0.5123632,-0.5563455,-1.9370537
500,2026-05-11 16:08:54.011488,0.913346,-0.40758476,-0.79882705,-0.5123632,-0.5563455,-1.9370537
501,2026-05-11 16:08:54.014033,0.913346,-0.40758476,-0.79882705,-0.5123632,-0.5563455,-1.9370537
502,2026-05-11 16:08:54.016651,0.913346,-0.40758476,-0.79882705,-0.5123632,-0.5563455,-1.9370537
503,2026-05-11 16:08:54.019850,0.913346,-0.40758476,-0.79882705,-0.5123632,-0.5563455,-1.9370537
504,2026-05-11 16:08:54.022459,0.913346,-0.40758476,-0.79882705,-0.5123632,-0.5563455,-1.9370537
505,2026-05-11 16:08:54.025036,0.913346,-0.40758476,-0.79882705,-0.5123632,-0.5563455,-1.9370537
506,2026-05-11 16:08:54.027857,0.913346,-0.40758476,-0.79882705,-0.5123632,-0.5563455,-1.9370537
507,2026-05-11 16:08:54.030559,1.0109127,-0.38660794,-0.7857166,-0.5123632,-0.5563455,-1.9370537
508,2026-05-11 16:08:54.033546,1.0109127,-0.38660794,-0.7857166,-0.5123632,-0.5563455,-1.9370537
509,2026-05-11 16:08:54.036372,1.0109127,-0.38660794,-0.7857166,-0.5123632,-0.5563455,-1.9370537
510,2026-05-11 16:08:54.039070,1.0109127,-0.38660794,-0.7857166,-0.5123632,-0.5563455,-1.9370537
511,2026-05-11 16:08:54.041642,1.0109127,-0.38660794,-0.7857166,-0.5123632,-0.5563455,-1.9370537
512,2026-05-11 16:08:54.044448,1.0109127,-0.38660794,-0.7857166,-0.5123632,-0.5563455,-1.9370537
513,2026-05-11 16:08:54.047074,1.0109127,-0.38660794,-0.7857166,-0.5123632,-0.5563455,-1.9370537
514,2026-05-11 16:08:54.049731,1.0109127,-0.38660794,-0.7857166,-0.5123632,-0.5563455,-1.9370537
515,2026-05-11 16:08:54.053005,1.0109127,-0.38660794,-0.7857166,-0.5123632,-0.5563455,-1.9370537
516,2026-05-11 16:08:54.055588,1.0109127,-0.38660794,-0.7857166,-0.5123632,-0.5563455,-1.9370537
517,2026-05-11 16:08:54.058175,1.0109127,-0.38660794,-0.7857166,-0.5123632,-0.5563455,-1.9370537
518,2026-05-11 16:08:54.060866,1.0109127,-0.38660794,-0.7857166,-0.5123632,-0.5563455,-1.9370537
519,2026-05-11 16:08:54.063441,1.0109127,-0.38660794,-0.7857166,-0.5123632,-0.5563455,-1.9370537
520,2026-05-11 16:08:54.066284,1.0109127,-0.38660794,-0.7857166,-0.5123632,-0.5563455,-1.9370537
521,2026-05-11 16:08:54.069361,1.0109127,-0.38660794,-0.7857166,-0.5123632,-0.5563455,-1.9370537
522,2026-05-11 16:08:54.072256,1.0109127,-0.38660794,-0.7857166,-0.9060659,-0.37980548,-1.6756034
523,2026-05-11 16:08:54.074914,1.0109127,-0.38660794,-0.7857166,-0.9060659,-0.37980548,-1.6756034
524,2026-05-11 16:08:54.077639,1.0109127,-0.38660794,-0.7857166,-0.9060659,-0.37980548,-1.6756034
525,2026-05-11 16:08:54.080249,1.0109127,-0.38660794,-0.7857166,-0.9060659,-0.37980548,-1.6756034
526,2026-05-11 16:08:54.082889,1.0109127,-0.38660794,-0.7857166,-0.9060659,-0.37980548,-1.6756034
527,2026-05-11 16:08:54.086104,1.0109127,-0.38660794,-0.7857166,-0.9060659,-0.37980548,-1.6756034
528,2026-05-11 16:08:54.088691,1.0109127,-0.38660794,-0.7857166,-0.9060659,-0.37980548,-1.6756034
529,2026-05-11 16:08:54.091435,1.0109127,-0.38660794,-0.7857166,-0.9060659,-0.37980548,-1.6756034
530,2026-05-11 16:08:54.094027,1.0109127,-0.38660794,-0.7857166,-0.9060659,-0.37980548,-1.6756034
531,2026-05-11 16:08:54.096558,1.0109127,-0.38660794,-0.7857166,-0.9060659,-0.37980548,-1.6756034
532,2026-05-11 16:08:54.099100,1.0109127,-0.38660794,-0.7857166,-0.9060659,-0.37980548,-1.6756034
533,2026-05-11 16:08:54.102097,1.0109127,-0.38660794,-0.7857166,-0.9060659,-0.37980548,-1.6756034
534,2026-05-11 16:08:54.104702,1.0109127,-0.38660794,-0.7857166,-0.9060659,-0.37980548,-1.6756034
535,2026-05-11 16:08:54.107364,1.0109127,-0.38660794,-0.7857166,-0.9060659,-0.37980548,-1.6756034
536,2026-05-11 16:08:54.109883,1.0109127,-0.38660794,-0.7857166,-0.9060659,-0.37980548,-1.6756034
537,2026-05-11 16:08:54.112618,1.0109127,-0.38660794,-0.7857166,-0.9060659,-0.37980548,-1.6756034
538,2026-05-11 16:08:54.115140,1.0109127,-0.38660794,-0.7857166,-0.9060659,-0.37980548,-1.6756034
539,2026-05-11 16:08:54.118237,1.0109127,-0.38660794,-0.7857166,-0.9060659,-0.37980548,-1.6756034
540,2026-05-11 16:08:54.120915,1.0109127,-0.38660794,-0.7857166,-0.9060659,-0.37980548,-1.6756034
541,2026-05-11 16:08:54.123513,1.0109127,-0.38660794,-0.7857166,-0.9060659,-0.37980548,-1.6756034
542,2026-05-11 16:08:54.126284,1.0109127,-0.38660794,-0.7857166,-0.9060659,-0.37980548,-1.6756034
543,2026-05-11 16:08:54.129233,1.0109127,-0.38660794,-0.7857166,-0.9060659,-0.37980548,-1.6756034
544,2026-05-11 16:08:54.131934,1.0109127,-0.38660794,-0.7857166,-0.9060659,-0.37980548,-1.6756034
545,2026-05-11 16:08:54.134949,1.0109127,-0.38660794,-0.7857166,-0.9060659,-0.37980548,-1.6756034
546,2026-05-11 16:08:54.137849,1.0109127,-0.38660794,-0.7857166,-0.9060659,-0.37980548,-1.6756034
547,2026-05-11 16:08:54.140640,1.293795,-0.23897736,-0.7632762,-0.9060659,-0.37980548,-1.6756034
548,2026-05-11 16:08:54.143422,1.293795,-0.23897736,-0.7632762,-0.9060659,-0.37980548,-1.6756034
549,2026-05-11 16:08:54.146016,1.293795,-0.23897736,-0.7632762,-0.9060659,-0.37980548,-1.6756034
550,2026-05-11 16:08:54.148611,1.293795,-0.23897736,-0.7632762,-0.9060659,-0.37980548,-1.6756034
551,2026-05-11 16:08:54.151595,1.1658607,-0.19543824,-0.7324818,-0.9060659,-0.37980548,-1.6756034
552,2026-05-11 16:08:54.154495,1.1658607,-0.19543824,-0.7324818,-1.4031575,0.06780604,-2.1195498
553,2026-05-11 16:08:54.157237,1.1658607,-0.19543824,-0.7324818,-1.4031575,0.06780604,-2.1195498
554,2026-05-11 16:08:54.159937,1.1658607,-0.19543824,-0.7324818,-1.4031575,0.06780604,-2.1195498
555,2026-05-11 16:08:54.162754,1.1658607,-0.19543824,-0.7324818,-0.0571159,-0.7787005,-2.3797784
556,2026-05-11 16:08:54.165403,1.1658607,-0.19543824,-0.7324818,-0.0571159,-0.7787005,-2.3797784
557,2026-05-11 16:08:54.168359,1.1658607,-0.19543824,-0.7324818,-0.0571159,-0.7787005,-2.3797784
558,2026-05-11 16:08:54.171070,1.1658607,-0.19543824,-0.7324818,-0.0571159,-0.7787005,-2.3797784
559,2026-05-11 16:08:54.173642,1.1658607,-0.19543824,-0.7324818,-0.0571159,-0.7787005,-2.3797784
560,2026-05-11 16:08:54.176397,1.1658607,-0.19543824,-0.7324818,-0.0571159,-0.7787005,-2.3797784
561,2026-05-11 16:08:54.178976,1.1658607,-0.19543824,-0.7324818,-0.0571159,-0.7787005,-2.3797784
562,2026-05-11 16:08:54.181535,1.1658607,-0.19543824,-0.7324818,-0.0571159,-0.7787005,-2.3797784
563,2026-05-11 16:08:54.184635,1.1658607,-0.19543824,-0.7324818,-0.0571159,-0.7787005,-2.3797784
564,2026-05-11 16:08:54.187320,0.9526166,-0.4212441,-0.6886987,-0.0571159,-0.7787005,-2.3797784
565,2026-05-11 16:08:54.190086,0.9526166,-0.4212441,-0.6886987,-0.0571159,-0.7787005,-2.3797784
566,2026-05-11 16:08:54.192769,0.9526166,-0.4212441,-0.6886987,-0.0571159,-0.7787005,-2.3797784
567,2026-05-11 16:08:54.197542,0.9526166,-0.4212441,-0.6886987,-0.0571159,-0.7787005,-2.3797784
568,2026-05-11 16:08:54.200881,0.9526166,-0.4212441,-0.6886987,-0.0571159,-0.7787005,-2.3797784
569,2026-05-11 16:08:54.203769,0.9526166,-0.4212441,-0.6886987,-0.0571159,-0.7787005,-2.3797784
570,2026-05-11 16:08:54.206535,0.9526166,-0.4212441,-0.6886987,-0.0571159,-0.7787005,-2.3797784
571,2026-05-11 16:08:54.209220,0.9526166,-0.4212441,-0.6886987,-0.0571159,-0.7787005,-2.3797784
572,2026-05-11 16:08:54.211988,0.9526166,-0.4212441,-0.6886987,-0.0571159,-0.7787005,-2.3797784
573,2026-05-11 16:08:54.214708,0.9526166,-0.4212441,-0.6886987,-0.0571159,-0.7787005,-2.3797784
574,2026-05-11 16:08:54.218030,0.9526166,-0.4212441,-0.6886987,-0.267559,-0.66920286,-2.1487186
575,2026-05-11 16:08:54.220820,0.9526166,-0.4212441,-0.6886987,-0.267559,-0.66920286,-2.1487186
576,2026-05-11 16:08:54.223608,0.9526166,-0.4212441,-0.6886987,-0.267559,-0.66920286,-2.1487186
577,2026-05-11 16:08:54.226225,0.9526166,-0.4212441,-0.6886987,-0.267559,-0.66920286,-2.1487186
578,2026-05-11 16:08:54.228952,0.9526166,-0.4212441,-0.6886987,-0.267559,-0.66920286,-2.1487186
579,2026-05-11 16:08:54.231511,0.9526166,-0.4212441,-0.6886987,-0.267559,-0.66920286,-2.1487186
580,2026-05-11 16:08:54.234722,0.9526166,-0.4212441,-0.6886987,-0.267559,-0.66920286,-2.1487186
581,2026-05-11 16:08:54.237520,0.9526166,-0.4212441,-0.6886987,-0.267559,-0.66920286,-2.1487186
582,2026-05-11 16:08:54.240253,0.9526166,-0.4212441,-0.6886987,-0.267559,-0.66920286,-2.1487186
583,2026-05-11 16:08:54.242994,0.9526166,-0.4212441,-0.6886987,-0.267559,-0.66920286,-2.1487186
584,2026-05-11 16:08:54.245624,0.9526166,-0.4212441,-0.6886987,-0.267559,-0.66920286,-2.1487186
585,2026-05-11 16:08:54.248316,0.9526166,-0.4212441,-0.6886987,-0.267559,-0.66920286,-2.1487186
586,2026-05-11 16:08:54.251378,0.9526166,-0.4212441,-0.6886987,-0.267559,-0.66920286,-2.1487186
587,2026-05-11 16:08:54.254144,0.9526166,-0.4212441,-0.6886987,-0.267559,-0.66920286,-2.1487186
588,2026-05-11 16:08:54.256904,0.9526166,-0.4212441,-0.6886987,-0.267559,-0.66920286,-2.1487186
589,2026-05-11 16:08:54.259568,0.9526166,-0.4212441,-0.6886987,-0.267559,-0.66920286,-2.1487186
590,2026-05-11 16:08:54.262117,0.9526166,-0.4212441,-0.6886987,-0.267559,-0.66920286,-2.1487186
591,2026-05-11 16:08:54.264834,0.9526166,-0.4212441,-0.6886987,-0.267559,-0.66920286,-2.1487186
592,2026-05-11 16:08:54.268098,0.9526166,-0.4212441,-0.6886987,-0.267559,-0.66920286,-2.1487186
593,2026-05-11 16:08:54.270983,1.1567138,-0.3240433,-0.7648007,-0.267559,-0.66920286,-2.1487186
594,2026-05-11 16:08:54.273591,1.1567138,-0.3240433,-0.7648007,-0.267559,-0.66920286,-2.1487186
595,2026-05-11 16:08:54.276404,1.1567138,-0.3240433,-0.7648007,-0.267559,-0.66920286,-2.1487186
596,2026-05-11 16:08:54.279172,1.1567138,-0.3240433,-0.7648007,-1.1203269,-0.2182316,-1.64674
597,2026-05-11 16:08:54.282115,1.1567138,-0.3240433,-0.7648007,-1.1203269,-0.2182316,-1.64674
598,2026-05-11 16:08:54.285249,1.1567138,-0.3240433,-0.7648007,-1.1203269,-0.2182316,-1.64674
599,2026-05-11 16:08:54.288046,1.1567138,-0.3240433,-0.7648007,-1.1203269,-0.2182316,-1.64674
600,2026-05-11 16:08:54.290788,1.1567138,-0.3240433,-0.7648007,-1.1203269,-0.2182316,-1.64674
601,2026-05-11 16:08:54.293495,1.1567138,-0.3240433,-0.7648007,-1.1203269,-0.2182316,-1.64674
602,2026-05-11 16:08:54.296291,1.1567138,-0.3240433,-0.7648007,-1.3051136,-0.03680463,-1.8411479
603,2026-05-11 16:08:54.299141,1.1567138,-0.3240433,-0.7648007,-1.3051136,-0.03680463,-1.8411479
604,2026-05-11 16:08:54.302311,1.1567138,-0.3240433,-0.7648007,-1.3051136,-0.03680463,-1.8411479
605,2026-05-11 16:08:54.304978,1.1567138,-0.3240433,-0.7648007,-1.3051136,-0.03680463,-1.8411479
606,2026-05-11 16:08:54.307564,1.1567138,-0.3240433,-0.7648007,-1.3051136,-0.03680463,-1.8411479
607,2026-05-11 16:08:54.310392,1.1567138,-0.3240433,-0.7648007,-1.3051136,-0.03680463,-1.8411479
608,2026-05-11 16:08:54.313011,1.1567138,-0.3240433,-0.7648007,-1.3051136,-0.03680463,-1.8411479
609,2026-05-11 16:08:54.315616,1.1567138,-0.3240433,-0.7648007,-1.3051136,-0.03680463,-1.8411479
610,2026-05-11 16:08:54.318872,1.1567138,-0.3240433,-0.7648007,-1.3051136,-0.03680463,-1.8411479
611,2026-05-11 16:08:54.321468,1.1567138,-0.3240433,-0.7648007,-1.3051136,-0.03680463,-1.8411479
612,2026-05-11 16:08:54.324215,1.1567138,-0.3240433,-0.7648007,-1.3051136,-0.03680463,-1.8411479
613,2026-05-11 16:08:54.326831,1.1567138,-0.3240433,-0.7648007,-1.3051136,-0.03680463,-1.8411479
614,2026-05-11 16:08:54.329500,1.1567138,-0.3240433,-0.7648007,-1.3051136,-0.03680463,-1.8411479
615,2026-05-11 16:08:54.332095,1.1567138,-0.3240433,-0.7648007,-1.3051136,-0.03680463,-1.8411479
616,2026-05-11 16:08:54.335270,1.1567138,-0.3240433,-0.7648007,-1.3051136,-0.03680463,-1.8411479
617,2026-05-11 16:08:54.338026,1.1567138,-0.3240433,-0.7648007,-1.3051136,-0.03680463,-1.8411479
618,2026-05-11 16:08:54.340612,1.1567138,-0.3240433,-0.7648007,-1.3051136,-0.03680463,-1.8411479
619,2026-05-11 16:08:54.343234,1.1567138,-0.3240433,-0.7648007,-1.3051136,-0.03680463,-1.8411479
620,2026-05-11 16:08:54.345962,1.1567138,-0.3240433,-0.7648007,-1.3051136,-0.03680463,-1.8411479
621,2026-05-11 16:08:54.348566,1.1567138,-0.3240433,-0.7648007,-1.3051136,-0.03680463,-1.8411479
622,2026-05-11 16:08:54.352147,1.1567138,-0.3240433,-0.7648007,-1.3051136,-0.03680463,-1.8411479
623,2026-05-11 16:08:54.355121,1.1567138,-0.3240433,-0.7648007,-1.3051136,-0.03680463,-1.8411479
624,2026-05-11 16:08:54.357764,1.1567138,-0.3240433,-0.7648007,-1.3051136,-0.03680463,-1.8411479
625,2026-05-11 16:08:54.360350,1.1567138,-0.3240433,-0.7648007,-1.3051136,-0.03680463,-1.8411479
626,2026-05-11 16:08:54.363152,1.1567138,-0.3240433,-0.7648007,-1.3051136,-0.03680463,-1.8411479
627,2026-05-11 16:08:54.365759,1.1567138,-0.3240433,-0.7648007,-1.3051136,-0.03680463,-1.8411479
628,2026-05-11 16:08:54.369138,1.1082355,-0.18824269,-0.72101766,-1.4071281,0.08032878,-2.159714
629,2026-05-11 16:08:54.372479,0.55863017,-0.14305714,-0.6510136,-1.3959798,0.16081028,-2.0062342
630,2026-05-11 16:08:54.375308,0.55863017,-0.14305714,-0.6510136,-1.3959798,0.16081028,-2.0062342
631,2026-05-11 16:08:54.378032,0.55863017,-0.14305714,-0.6510136,-1.3959798,0.16081028,-2.0062342
632,2026-05-11 16:08:54.380651,0.55863017,-0.14305714,-0.6510136,-1.3959798,0.16081028,-2.0062342
633,2026-05-11 16:08:54.383878,0.55863017,-0.14305714,-0.6510136,-1.3959798,0.16081028,-2.0062342
634,2026-05-11 16:08:54.386881,0.55863017,-0.14305714,-0.6510136,-1.3959798,0.16081028,-2.0062342
635,2026-05-11 16:08:54.389576,0.55863017,-0.14305714,-0.6510136,-1.3959798,0.16081028,-2.0062342
636,2026-05-11 16:08:54.392171,0.55863017,-0.14305714,-0.6510136,-1.3959798,0.16081028,-2.0062342
637,2026-05-11 16:08:54.394865,0.55863017,-0.14305714,-0.6510136,-1.3959798,0.16081028,-2.0062342
638,2026-05-11 16:08:54.397446,0.55863017,-0.14305714,-0.6510136,-1.3959798,0.16081028,-2.0062342
639,2026-05-11 16:08:54.400409,0.55863017,-0.14305714,-0.6510136,-1.3959798,0.16081028,-2.0062342
640,2026-05-11 16:08:54.403445,0.55863017,-0.14305714,-0.6510136,-1.3959798,0.16081028,-2.0062342
641,2026-05-11 16:08:54.406301,0.55863017,-0.14305714,-0.6510136,-1.3959798,0.16081028,-2.0062342
642,2026-05-11 16:08:54.408942,0.55863017,-0.14305714,-0.6510136,-1.3959798,0.16081028,-2.0062342
643,2026-05-11 16:08:54.411844,0.55863017,-0.14305714,-0.6510136,-1.3959798,0.16081028,-2.0062342
644,2026-05-11 16:08:54.414488,0.55863017,-0.14305714,-0.6510136,-1.3959798,0.16081028,-2.0062342
645,2026-05-11 16:08:54.417472,0.55863017,-0.14305714,-0.6510136,-1.3959798,0.16081028,-2.0062342
646,2026-05-11 16:08:54.420193,0.55863017,-0.14305714,-0.6510136,-1.3959798,0.16081028,-2.0062342
647,2026-05-11 16:08:54.422977,0.55863017,-0.14305714,-0.6510136,-1.3959798,0.16081028,-2.0062342
648,2026-05-11 16:08:54.425668,0.55863017,-0.14305714,-0.6510136,-1.3959798,0.16081028,-2.0062342
649,2026-05-11 16:08:54.428396,0.55863017,-0.14305714,-0.6510136,-1.3959798,0.16081028,-2.0062342
650,2026-05-11 16:08:54.430994,0.55863017,-0.14305714,-0.6510136,-1.3959798,0.16081028,-2.0062342
651,2026-05-11 16:08:54.434150,0.55863017,-0.14305714,-0.6510136,-1.3959798,0.16081028,-2.0062342
652,2026-05-11 16:08:54.437030,0.42630538,-0.114701815,-0.6193654,-1.3959798,0.16081028,-2.0062342
653,2026-05-11 16:08:54.439660,0.42630538,-0.114701815,-0.6193654,-1.3959798,0.16081028,-2.0062342
654,2026-05-11 16:08:54.442222,0.42630538,-0.114701815,-0.6193654,-1.3959798,0.16081028,-2.0062342
655,2026-05-11 16:08:54.445133,0.42630538,-0.114701815,-0.6193654,-1.3959798,0.16081028,-2.0062342
656,2026-05-11 16:08:54.447726,0.42630538,-0.114701815,-0.6193654,-1.3959798,0.16081028,-2.0062342
657,2026-05-11 16:08:54.450649,0.42630538,-0.114701815,-0.6193654,-1.3959798,0.16081028,-2.0062342
658,2026-05-11 16:08:54.453352,0.42630538,-0.114701815,-0.6193654,-1.3959798,0.16081028,-2.0062342
659,2026-05-11 16:08:54.455928,0.42630538,-0.114701815,-0.6193654,-1.3959798,0.16081028,-2.0062342
660,2026-05-11 16:08:54.458686,0.42630538,-0.114701815,-0.6193654,-1.3959798,0.16081028,-2.0062342
661,2026-05-11 16:08:54.461263,0.42630538,-0.114701815,-0.6193654,-1.3959798,0.16081028,-2.0062342
662,2026-05-11 16:08:54.464039,0.42630538,-0.114701815,-0.6193654,-1.3959798,0.16081028,-2.0062342
663,2026-05-11 16:08:54.466955,0.42630538,-0.114701815,-0.6193654,-1.3959798,0.16081028,-2.0062342
664,2026-05-11 16:08:54.470070,0.42630538,-0.114701815,-0.6193654,-1.3959798,0.16081028,-2.0062342
665,2026-05-11 16:08:54.472773,0.42630538,-0.114701815,-0.6193654,-1.1675162,0.37186423,-0.8738427
666,2026-05-11 16:08:54.475434,0.42630538,-0.114701815,-0.6193654,-1.1675162,0.37186423,-0.8738427
667,2026-05-11 16:08:54.478001,0.42630538,-0.114701815,-0.6193654,-1.1675162,0.37186423,-0.8738427
668,2026-05-11 16:08:54.480733,0.42630538,-0.114701815,-0.6193654,-1.1675162,0.37186423,-0.8738427
669,2026-05-11 16:08:54.483865,0.42630538,-0.114701815,-0.6193654,-1.1675162,0.37186423,-0.8738427
670,2026-05-11 16:08:54.486672,0.35349622,0.045551438,-0.63332963,-1.1675162,0.37186423,-0.8738427
671,2026-05-11 16:08:54.489212,0.35349622,0.045551438,-0.63332963,-1.1675162,0.37186423,-0.8738427
672,2026-05-11 16:08:54.491776,0.35349622,0.045551438,-0.63332963,-1.1675162,0.37186423,-0.8738427
673,2026-05-11 16:08:54.494321,0.35349622,0.045551438,-0.63332963,-1.1675162,0.37186423,-0.8738427
674,2026-05-11 16:08:54.496856,0.35349622,0.045551438,-0.63332963,-1.1675162,0.37186423,-0.8738427
675,2026-05-11 16:08:54.499920,0.47014937,0.16897328,-0.65345275,-1.1675162,0.37186423,-0.8738427
676,2026-05-11 16:08:54.503110,0.47014937,0.16897328,-0.65345275,-1.1675162,0.37186423,-0.8738427
677,2026-05-11 16:08:54.505814,0.47014937,0.16897328,-0.65345275,-1.1675162,0.37186423,-0.8738427
678,2026-05-11 16:08:54.508435,0.47014937,0.16897328,-0.65345275,-1.1675162,0.37186423,-0.8738427
679,2026-05-11 16:08:54.511017,0.47014937,0.16897328,-0.65345275,-1.1675162,0.37186423,-0.8738427
680,2026-05-11 16:08:54.514009,0.47014937,0.16897328,-0.65345275,-1.1675162,0.37186423,-0.8738427
681,2026-05-11 16:08:54.517148,0.47014937,0.16897328,-0.65345275,-1.1675162,0.37186423,-0.8738427
682,2026-05-11 16:08:54.519996,0.47014937,0.16897328,-0.65345275,-1.1675162,0.37186423,-0.8738427
683,2026-05-11 16:08:54.522702,0.47014937,0.16897328,-0.65345275,-1.1675162,0.37186423,-0.8738427
684,2026-05-11 16:08:54.525301,0.47014937,0.16897328,-0.65345275,-1.1675162,0.37186423,-0.8738427
685,2026-05-11 16:08:54.527902,0.47014937,0.16897328,-0.65345275,-1.0552697,0.5719226,-0.42745295
686,2026-05-11 16:08:54.530615,0.47014937,0.16897328,-0.65345275,-1.0552697,0.5719226,-0.42745295
687,2026-05-11 16:08:54.533839,0.47014937,0.16897328,-0.65345275,-1.0552697,0.5719226,-0.42745295
688,2026-05-11 16:08:54.536696,0.47014937,0.16897328,-0.65345275,-1.0552697,0.5719226,-0.42745295
689,2026-05-11 16:08:54.539314,0.47014937,0.16897328,-0.65345275,-1.0552697,0.5719226,-0.42745295
690,2026-05-11 16:08:54.542001,0.47014937,0.16897328,-0.65345275,-1.0552697,0.5719226,-0.42745295
691,2026-05-11 16:08:54.544589,0.47014937,0.16897328,-0.65345275,-1.0552697,0.5719226,-0.42745295
692,2026-05-11 16:08:54.547404,0.47014937,0.16897328,-0.65345275,-1.0552697,0.5719226,-0.42745295
693,2026-05-11 16:08:54.550321,0.47014937,0.16897328,-0.65345275,-1.0552697,0.5719226,-0.42745295
694,2026-05-11 16:08:54.553066,0.47014937,0.16897328,-0.65345275,-1.0552697,0.5719226,-0.42745295
695,2026-05-11 16:08:54.555707,0.47014937,0.16897328,-0.65345275,-1.0552697,0.5719226,-0.42745295
696,2026-05-11 16:08:54.558390,0.62393886,0.3647774,-0.73315257,-0.8220719,0.8239045,-0.07009678
697,2026-05-11 16:08:54.561016,0.62393886,0.3647774,-0.73315257,-0.8220719,0.8239045,-0.07009678
698,2026-05-11 16:08:54.563572,0.62393886,0.3647774,-0.73315257,-0.8220719,0.8239045,-0.07009678
699,2026-05-11 16:08:54.566821,0.62393886,0.3647774,-0.73315257,-0.8220719,0.8239045,-0.07009678
700,2026-05-11 16:08:54.569582,0.62393886,0.3647774,-0.73315257,-0.8220719,0.8239045,-0.07009678
701,2026-05-11 16:08:54.572212,0.62393886,0.3647774,-0.73315257,-0.8220719,0.8239045,-0.07009678
702,2026-05-11 16:08:54.574972,0.62393886,0.3647774,-0.73315257,-0.8220719,0.8239045,-0.07009678
703,2026-05-11 16:08:54.577691,0.62393886,0.3647774,-0.73315257,-0.8220719,0.8239045,-0.07009678
704,2026-05-11 16:08:54.580316,0.62393886,0.3647774,-0.73315257,-0.8220719,0.8239045,-0.07009678
705,2026-05-11 16:08:54.582996,0.62393886,0.3647774,-0.73315257,-0.5355761,0.9841039,-0.07162395
706,2026-05-11 16:08:54.586380,0.62393886,0.3647774,-0.73315257,-0.5355761,0.9841039,-0.07162395
707,2026-05-11 16:08:54.589018,0.62393886,0.3647774,-0.73315257,-0.5355761,0.9841039,-0.07162395
708,2026-05-11 16:08:54.591590,0.62393886,0.3647774,-0.73315257,-0.5355761,0.9841039,-0.07162395
709,2026-05-11 16:08:54.594190,0.62393886,0.3647774,-0.73315257,-0.5355761,0.9841039,-0.07162395
710,2026-05-11 16:08:54.596962,0.62393886,0.3647774,-0.73315257,-0.5355761,0.9841039,-0.07162395
711,2026-05-11 16:08:54.599799,0.62393886,0.3647774,-0.73315257,-0.5355761,0.9841039,-0.07162395
712,2026-05-11 16:08:54.603119,0.62393886,0.3647774,-0.73315257,-0.5355761,0.9841039,-0.07162395
713,2026-05-11 16:08:54.605718,0.62393886,0.3647774,-0.73315257,-0.5355761,0.9841039,-0.07162395
714,2026-05-11 16:08:54.608829,0.62393886,0.3647774,-0.73315257,-0.5355761,0.9841039,-0.07162395
715,2026-05-11 16:08:54.611954,0.62393886,0.3647774,-0.73315257,-0.47036624,1.016938,-0.182496
716,2026-05-11 16:08:54.615168,0.6910769,0.5202133,-0.8970036,-0.47036624,1.016938,-0.182496
717,2026-05-11 16:08:54.618674,0.6893695,0.5907662,-1.0287796,-0.47036624,1.016938,-0.182496
718,2026-05-11 16:08:54.622168,0.6893695,0.5907662,-1.0287796,-0.47036624,1.016938,-0.182496
719,2026-05-11 16:08:54.625150,0.6893695,0.5907662,-1.0287796,-0.47036624,1.016938,-0.182496
720,2026-05-11 16:08:54.628404,0.6893695,0.5907662,-1.0287796,-0.47036624,1.016938,-0.182496
721,2026-05-11 16:08:54.631379,0.6893695,0.5907662,-1.0287796,-0.47036624,1.016938,-0.182496
722,2026-05-11 16:08:54.635094,0.6893695,0.5907662,-1.0287796,-0.47036624,1.016938,-0.182496
723,2026-05-11 16:08:54.638159,0.6893695,0.5907662,-1.0287796,-0.47036624,1.016938,-0.182496
724,2026-05-11 16:08:54.641377,0.6893695,0.5907662,-1.0287796,-0.47036624,1.016938,-0.182496
725,2026-05-11 16:08:54.644342,0.6893695,0.5907662,-1.0287796,-0.47036624,1.016938,-0.182496
726,2026-05-11 16:08:54.647099,0.6893695,0.5907662,-1.0287796,-0.47036624,1.016938,-0.182496
727,2026-05-11 16:08:54.650117,0.45716083,0.6460743,-1.2831845,-0.47036624,1.016938,-0.182496
728,2026-05-11 16:08:54.653016,0.45716083,0.6460743,-1.2831845,-0.55970526,0.9101892,-0.52534413
729,2026-05-11 16:08:54.655612,0.45716083,0.6460743,-1.2831845,-0.55970526,0.9101892,-0.52534413
730,2026-05-11 16:08:54.658446,0.073540874,0.6530869,-1.4570361,-0.8407033,0.6227771,-0.7144069
731,2026-05-11 16:08:54.661067,0.073540874,0.6530869,-1.4570361,-0.8407033,0.6227771,-0.7144069
732,2026-05-11 16:08:54.663624,0.073540874,0.6530869,-1.4570361,-0.8407033,0.6227771,-0.7144069
733,2026-05-11 16:08:54.666476,0.073540874,0.6530869,-1.4570361,-0.8407033,0.6227771,-0.7144069
734,2026-05-11 16:08:54.669373,0.073540874,0.6530869,-1.4570361,-0.8407033,0.6227771,-0.7144069
735,2026-05-11 16:08:54.672129,0.073540874,0.6530869,-1.4570361,-0.8407033,0.6227771,-0.7144069
736,2026-05-11 16:08:54.674787,0.073540874,0.6530869,-1.4570361,-0.8407033,0.6227771,-0.7144069
737,2026-05-11 16:08:54.677391,0.073540874,0.6530869,-1.4570361,-0.8407033,0.6227771,-0.7144069
738,2026-05-11 16:08:54.680288,0.073540874,0.6530869,-1.4570361,-0.8407033,0.6227771,-0.7144069
739,2026-05-11 16:08:54.682995,0.073540874,0.6530869,-1.4570361,-0.8407033,0.6227771,-0.7144069
740,2026-05-11 16:08:54.686376,0.073540874,0.6530869,-1.4570361,-0.8407033,0.6227771,-0.7144069
741,2026-05-11 16:08:54.689052,0.073540874,0.6530869,-1.4570361,-0.8407033,0.6227771,-0.7144069
742,2026-05-11 16:08:54.691792,0.073540874,0.6530869,-1.4570361,-0.8407033,0.6227771,-0.7144069
743,2026-05-11 16:08:54.694454,0.073540874,0.6530869,-1.4570361,-0.8407033,0.6227771,-0.7144069
744,2026-05-11 16:08:54.697052,0.073540874,0.6530869,-1.4570361,-0.8407033,0.6227771,-0.7144069
745,2026-05-11 16:08:54.699964,0.073540874,0.6530869,-1.4570361,-0.8407033,0.6227771,-0.7144069
746,2026-05-11 16:08:54.702926,0.073540874,0.6530869,-1.4570361,-0.8407033,0.6227771,-0.7144069
747,2026-05-11 16:08:54.705709,0.073540874,0.6530869,-1.4570361,-0.8407033,0.6227771,-0.7144069
748,2026-05-11 16:08:54.708362,0.073540874,0.6530869,-1.4570361,-0.8407033,0.6227771,-0.7144069
749,2026-05-11 16:08:54.710980,0.073540874,0.6530869,-1.4570361,-0.8407033,0.6227771,-0.7144069
750,2026-05-11 16:08:54.713889,0.073540874,0.6530869,-1.4570361,-0.8407033,0.6227771,-0.7144069
751,2026-05-11 16:08:54.717015,0.073540874,0.6530869,-1.4570361,-0.8407033,0.6227771,-0.7144069
752,2026-05-11 16:08:54.719827,0.073540874,0.6530869,-1.4570361,-0.8407033,0.6227771,-0.7144069
753,2026-05-11 16:08:54.722453,0.073540874,0.6530869,-1.4570361,-0.8407033,0.6227771,-0.7144069
754,2026-05-11 16:08:54.725257,0.073540874,0.6530869,-1.4570361,-0.8407033,0.6227771,-0.7144069
755,2026-05-11 16:08:54.727904,0.073540874,0.6530869,-1.4570361,-0.8407033,0.6227771,-0.7144069
756,2026-05-11 16:08:54.730676,0.073540874,0.6530869,-1.4570361,-0.8407033,0.6227771,-0.7144069
757,2026-05-11 16:08:54.733788,-0.30215177,0.6739418,-1.4857575,-0.8407033,0.6227771,-0.7144069
758,2026-05-11 16:08:54.736762,-0.30215177,0.6739418,-1.4857575,-0.8407033,0.6227771,-0.7144069
759,2026-05-11 16:08:54.739407,-0.30215177,0.6739418,-1.4857575,-0.8407033,0.6227771,-0.7144069
760,2026-05-11 16:08:54.741985,-0.30215177,0.6739418,-1.4857575,-0.8407033,0.6227771,-0.7144069
761,2026-05-11 16:08:54.744771,-0.30215177,0.6739418,-1.4857575,-0.8407033,0.6227771,-0.7144069
762,2026-05-11 16:08:54.747422,-0.30215177,0.6739418,-1.4857575,-0.8407033,0.6227771,-0.7144069
763,2026-05-11 16:08:54.750532,-0.30215177,0.6739418,-1.4857575,-0.8407033,0.6227771,-0.7144069
764,2026-05-11 16:08:54.753541,-0.30215177,0.6739418,-1.4857575,-1.4570663,0.12492194,-0.7486154
765,2026-05-11 16:08:54.756181,-0.30215177,0.6739418,-1.4857575,-1.4570663,0.12492194,-0.7486154
766,2026-05-11 16:08:54.758749,-0.30215177,0.6739418,-1.4857575,-1.4570663,0.12492194,-0.7486154
767,2026-05-11 16:08:54.761436,-0.30215177,0.6739418,-1.4857575,-1.4570663,0.12492194,-0.7486154
768,2026-05-11 16:08:54.763990,-0.30215177,0.6739418,-1.4857575,-1.4570663,0.12492194,-0.7486154
769,2026-05-11 16:08:54.767088,-0.30215177,0.6739418,-1.4857575,-1.4570663,0.12492194,-0.7486154
770,2026-05-11 16:08:54.770020,-0.30215177,0.6739418,-1.4857575,-1.4570663,0.12492194,-0.7486154
771,2026-05-11 16:08:54.772666,-0.30215177,0.6739418,-1.4857575,-1.4570663,0.12492194,-0.7486154
772,2026-05-11 16:08:54.775234,-0.30215177,0.6739418,-1.4857575,-1.4570663,0.12492194,-0.7486154
773,2026-05-11 16:08:54.777928,-0.30215177,0.6739418,-1.4857575,-1.4570663,0.12492194,-0.7486154
774,2026-05-11 16:08:54.780475,-0.30215177,0.6739418,-1.4857575,-1.4570663,0.12492194,-0.7486154
775,2026-05-11 16:08:54.783693,-0.30215177,0.6739418,-1.4857575,-1.4570663,0.12492194,-0.7486154
776,2026-05-11 16:08:54.786371,-0.30215177,0.6739418,-1.4857575,-1.4570663,0.12492194,-0.7486154
777,2026-05-11 16:08:54.813628,-0.30215177,0.6739418,-1.4857575,-1.4570663,0.12492194,-0.7486154
778,2026-05-11 16:08:54.817046,-0.30215177,0.6739418,-1.4857575,-2.189952,-0.26511553,-0.6739371
779,2026-05-11 16:08:54.825882,-0.5278967,0.59771776,-1.3500787,-2.189952,-0.26511553,-0.6739371
780,2026-05-11 16:08:54.828649,-0.5278967,0.59771776,-1.3500787,-2.189952,-0.26511553,-0.6739371
781,2026-05-11 16:08:54.831241,-0.5278967,0.59771776,-1.3500787,-2.189952,-0.26511553,-0.6739371
782,2026-05-11 16:08:54.834300,-0.5278967,0.59771776,-1.3500787,-2.189952,-0.26511553,-0.6739371
783,2026-05-11 16:08:54.837158,-0.5278967,0.59771776,-1.3500787,-2.189952,-0.26511553,-0.6739371
784,2026-05-11 16:08:54.840084,-0.6130236,0.5041757,-1.2289132,-2.189952,-0.26511553,-0.6739371
785,2026-05-11 16:08:54.842779,-0.6130236,0.5041757,-1.2289132,-2.189952,-0.26511553,-0.6739371
786,2026-05-11 16:08:54.845474,-0.6130236,0.5041757,-1.2289132,-2.189952,-0.26511553,-0.6739371
787,2026-05-11 16:08:54.848192,-0.6130236,0.5041757,-1.2289132,-2.189952,-0.26511553,-0.6739371
788,2026-05-11 16:08:54.851430,-0.6130236,0.5041757,-1.2289132,-2.189952,-0.26511553,-0.6739371
789,2026-05-11 16:08:54.854151,-0.6130236,0.5041757,-1.2289132,-2.189952,-0.26511553,-0.6739371
790,2026-05-11 16:08:54.856879,-0.6130236,0.5041757,-1.2289132,-2.189952,-0.26511553,-0.6739371
791,2026-05-11 16:08:54.859476,-0.6130236,0.5041757,-1.2289132,-2.189952,-0.26511553,-0.6739371
792,2026-05-11 16:08:54.862232,-0.6130236,0.5041757,-1.2289132,-2.189952,-0.26511553,-0.6739371
793,2026-05-11 16:08:54.864810,-0.6130236,0.5041757,-1.2289132,-2.189952,-0.26511553,-0.6739371
794,2026-05-11 16:08:54.867899,-0.6130236,0.5041757,-1.2289132,-2.189952,-0.26511553,-0.6739371
795,2026-05-11 16:08:54.870675,-0.6130236,0.5041757,-1.2289132,-2.189952,-0.26511553,-0.6739371
796,2026-05-11 16:08:54.873414,-0.6130236,0.5041757,-1.2289132,-2.8108964,-0.3715588,-0.58093286
797,2026-05-11 16:08:54.876085,-0.6130236,0.5041757,-1.2289132,-2.8108964,-0.3715588,-0.58093286
798,2026-05-11 16:08:54.878831,-0.6130236,0.5041757,-1.2289132,-2.8108964,-0.3715588,-0.58093286
799,2026-05-11 16:08:54.881503,-0.6130236,0.5041757,-1.2289132,-2.8108964,-0.3715588,-0.58093286
800,2026-05-11 16:08:54.884397,-0.6130236,0.5041757,-1.2289132,-2.8108964,-0.3715588,-0.58093286
801,2026-05-11 16:08:54.887048,-0.6130236,0.5041757,-1.2289132,-2.8108964,-0.3715588,-0.58093286
802,2026-05-11 16:08:54.889778,-0.6130236,0.5041757,-1.2289132,-2.8108964,-0.3715588,-0.58093286
803,2026-05-11 16:08:54.892461,-0.6130236,0.5041757,-1.2289132,-2.8108964,-0.3715588,-0.58093286
804,2026-05-11 16:08:54.895073,-0.6130236,0.5041757,-1.2289132,-2.8108964,-0.3715588,-0.58093286
805,2026-05-11 16:08:54.897629,-0.6130236,0.5041757,-1.2289132,-2.8108964,-0.3715588,-0.58093286
806,2026-05-11 16:08:54.900710,-0.6130236,0.5041757,-1.2289132,-2.8108964,-0.3715588,-0.58093286
807,2026-05-11 16:08:54.903444,-0.6130236,0.5041757,-1.2289132,-2.8108964,-0.3715588,-0.58093286
808,2026-05-11 16:08:54.906014,-0.6130236,0.5041757,-1.2289132,-2.8108964,-0.3715588,-0.58093286
809,2026-05-11 16:08:54.908620,-0.6130236,0.5041757,-1.2289132,-2.8108964,-0.3715588,-0.58093286
810,2026-05-11 16:08:54.911239,-0.6130236,0.5041757,-1.2289132,-2.8108964,-0.3715588,-0.58093286
811,2026-05-11 16:08:54.913843,-0.6130236,0.5041757,-1.2289132,-2.8108964,-0.3715588,-0.58093286
812,2026-05-11 16:08:54.916525,-0.6130236,0.5041757,-1.2289132,-2.8108964,-0.3715588,-0.58093286
813,2026-05-11 16:08:54.919843,-0.76967907,0.39166918,-0.9610926,-3.1563408,-0.24510968,-0.4531093
814,2026-05-11 16:08:54.922674,-0.85248876,0.38057098,-0.8212674,-3.1563408,-0.24510968,-0.4531093
815,2026-05-11 16:08:54.925535,-0.85248876,0.38057098,-0.8212674,-3.1563408,-0.24510968,-0.4531093
816,2026-05-11 16:08:54.928238,-0.85248876,0.38057098,-0.8212674,-3.1563408,-0.24510968,-0.4531093
817,2026-05-11 16:08:54.931028,-0.85248876,0.38057098,-0.8212674,-3.1563408,-0.24510968,-0.4531093
818,2026-05-11 16:08:54.934054,-0.913346,0.41185328,-0.67339295,-3.3195944,0.13103059,0.16035213
819,2026-05-11 16:08:54.937048,-0.913346,0.41185328,-0.67339295,-3.3195944,0.13103059,0.16035213
820,2026-05-11 16:08:54.939759,-0.913346,0.41185328,-0.67339295,-3.3195944,0.13103059,0.16035213
821,2026-05-11 16:08:54.942454,-0.913346,0.41185328,-0.67339295,-3.3195944,0.13103059,0.16035213
822,2026-05-11 16:08:54.945049,-0.913346,0.41185328,-0.67339295,-3.3195944,0.13103059,0.16035213
823,2026-05-11 16:08:54.947838,-0.913346,0.41185328,-0.67339295,-3.3195944,0.13103059,0.16035213
824,2026-05-11 16:08:54.950908,-0.913346,0.41185328,-0.67339295,-3.3195944,0.13103059,0.16035213
825,2026-05-11 16:08:54.953761,-0.913346,0.41185328,-0.67339295,-3.3195944,0.13103059,0.16035213
826,2026-05-11 16:08:54.956351,-0.913346,0.41185328,-0.67339295,-3.3195944,0.13103059,0.16035213
827,2026-05-11 16:08:54.959211,-0.913346,0.41185328,-0.67339295,-3.3195944,0.13103059,0.16035213
828,2026-05-11 16:08:54.961973,-1.0256696,0.47844255,-0.64644015,-3.3195944,0.13103059,0.16035213
829,2026-05-11 16:08:54.964638,-1.0256696,0.47844255,-0.64644015,-3.3195944,0.13103059,0.16035213
830,2026-05-11 16:08:54.967539,-1.0256696,0.47844255,-0.64644015,-3.3195944,0.13103059,0.16035213
831,2026-05-11 16:08:54.970392,-1.0256696,0.47844255,-0.64644015,-3.0677652,0.1067487,0.4990769
832,2026-05-11 16:08:54.973150,-1.0256696,0.47844255,-0.64644015,-3.0677652,0.1067487,0.4990769
833,2026-05-11 16:08:54.975750,-1.0256696,0.47844255,-0.64644015,-3.0677652,0.1067487,0.4990769
834,2026-05-11 16:08:54.978417,-1.0256696,0.47844255,-0.64644015,-3.0677652,0.1067487,0.4990769
835,2026-05-11 16:08:54.980997,-1.0256696,0.47844255,-0.64644015,-3.0677652,0.1067487,0.4990769
836,2026-05-11 16:08:54.984073,-1.0256696,0.47844255,-0.64644015,-3.0677652,0.1067487,0.4990769
837,2026-05-11 16:08:54.986850,-1.0256696,0.47844255,-0.64644015,-3.0677652,0.1067487,0.4990769
838,2026-05-11 16:08:54.989481,-1.0256696,0.47844255,-0.64644015,-3.0677652,0.1067487,0.4990769
839,2026-05-11 16:08:54.992065,-1.0256696,0.47844255,-0.64644015,-3.0677652,0.1067487,0.4990769
840,2026-05-11 16:08:54.994918,-1.0256696,0.47844255,-0.64644015,-3.0677652,0.1067487,0.4990769
841,2026-05-11 16:08:54.997613,-1.0256696,0.47844255,-0.64644015,-3.0677652,0.1067487,0.4990769
842,2026-05-11 16:08:55.000915,-1.0256696,0.47844255,-0.64644015,-3.0677652,0.1067487,0.4990769
843,2026-05-11 16:08:55.003689,-1.0256696,0.47844255,-0.64644015,-3.0677652,0.1067487,0.4990769
844,2026-05-11 16:08:55.006533,-1.0256696,0.47844255,-0.64644015,-2.9046643,-0.02107485,0.7796168
845,2026-05-11 16:08:55.009181,-1.0256696,0.47844255,-0.64644015,-2.9046643,-0.02107485,0.7796168
846,2026-05-11 16:08:55.011953,-1.0256696,0.47844255,-0.64644015,-2.9046643,-0.02107485,0.7796168
847,2026-05-11 16:08:55.014634,-1.0256696,0.47844255,-0.64644015,-2.9046643,-0.02107485,0.7796168
848,2026-05-11 16:08:55.017817,-0.895479,0.71943223,-0.6505867,-2.695443,-0.5852089,3.0488284
849,2026-05-11 16:08:55.020706,-0.895479,0.71943223,-0.6505867,-2.695443,-0.5852089,3.0488284
850,2026-05-11 16:08:55.023543,-0.895479,0.71943223,-0.6505867,-2.695443,-0.5852089,3.0488284
851,2026-05-11 16:08:55.026145,-0.895479,0.71943223,-0.6505867,-2.695443,-0.5852089,3.0488284
852,2026-05-11 16:08:55.028849,-0.895479,0.71943223,-0.6505867,-2.695443,-0.5852089,3.0488284
853,2026-05-11 16:08:55.031428,-0.895479,0.71943223,-0.6505867,-2.695443,-0.5852089,3.0488284
854,2026-05-11 16:08:55.034577,-0.895479,0.71943223,-0.6505867,-2.695443,-0.5852089,3.0488284
855,2026-05-11 16:08:55.037479,-0.895479,0.71943223,-0.6505867,-2.695443,-0.5852089,3.0488284
856,2026-05-11 16:08:55.040300,-0.895479,0.71943223,-0.6505867,-2.643672,-0.37064248,3.386637
857,2026-05-11 16:08:55.042887,-0.895479,0.71943223,-0.6505867,-2.643672,-0.37064248,3.386637
858,2026-05-11 16:08:55.045502,-0.895479,0.71943223,-0.6505867,-2.643672,-0.37064248,3.386637
859,2026-05-11 16:08:55.048070,-0.895479,0.71943223,-0.6505867,-2.643672,-0.37064248,3.386637
860,2026-05-11 16:08:55.051337,-0.895479,0.71943223,-0.6505867,-2.643672,-0.37064248,3.386637
861,2026-05-11 16:08:55.054309,-0.895479,0.71943223,-0.6505867,-2.643672,-0.37064248,3.386637
862,2026-05-11 16:08:55.057010,-0.26964986,0.99328965,-0.6079623,-2.6311493,-0.1910481,3.382208
863,2026-05-11 16:08:55.059644,-0.26964986,0.99328965,-0.6079623,-2.6311493,-0.1910481,3.382208
864,2026-05-11 16:08:55.062381,-0.26964986,0.99328965,-0.6079623,-2.6311493,-0.1910481,3.382208
865,2026-05-11 16:08:55.065073,-0.26964986,0.99328965,-0.6079623,-2.6311493,-0.1910481,3.382208
866,2026-05-11 16:08:55.068290,-0.1694611,1.167995,-0.73217684,-2.6311493,-0.1910481,3.382208
867,2026-05-11 16:08:55.071156,-0.1694611,1.167995,-0.73217684,-2.6311493,-0.1910481,3.382208
868,2026-05-11 16:08:55.073974,-0.1694611,1.167995,-0.73217684,-2.7974575,0.044898596,3.140611
869,2026-05-11 16:08:55.076597,-0.19379179,1.2826967,-0.778704,-3.0250046,0.036193766,2.9773571
870,2026-05-11 16:08:55.079406,-0.19379179,1.2826967,-0.778704,-3.0250046,0.036193766,2.9773571
871,2026-05-11 16:08:55.082027,-0.19379179,1.2826967,-0.778704,-3.0250046,0.036193766,2.9773571
872,2026-05-11 16:08:55.084834,-0.19379179,1.2826967,-0.778704,-3.0250046,0.036193766,2.9773571
873,2026-05-11 16:08:55.088240,-0.19379179,1.2826967,-0.778704,-3.0250046,0.036193766,2.9773571
874,2026-05-11 16:08:55.090856,-0.19379179,1.2826967,-0.778704,-3.0250046,0.036193766,2.9773571
875,2026-05-11 16:08:55.093389,-0.19379179,1.2826967,-0.778704,-3.0250046,0.036193766,2.9773571
876,2026-05-11 16:08:55.096105,-0.19379179,1.2826967,-0.778704,-3.0250046,0.036193766,2.9773571
877,2026-05-11 16:08:55.098696,-0.19379179,1.2826967,-0.778704,-3.0250046,0.036193766,2.9773571
878,2026-05-11 16:08:55.101686,-0.19379179,1.2826967,-0.778704,-3.0250046,0.036193766,2.9773571
879,2026-05-11 16:08:55.105170,-0.19379179,1.2826967,-0.778704,-3.0250046,0.036193766,2.9773571
880,2026-05-11 16:08:55.107963,-0.19379179,1.2826967,-0.778704,-3.0250046,0.036193766,2.9773571
881,2026-05-11 16:08:55.110659,-0.19379179,1.2826967,-0.778704,-3.0250046,0.036193766,2.9773571
882,2026-05-11 16:08:55.113353,-0.19379179,1.2826967,-0.778704,-3.0250046,0.036193766,2.9773571
883,2026-05-11 16:08:55.116421,-0.19379179,1.2826967,-0.778704,-3.0250046,0.036193766,2.9773571
884,2026-05-11 16:08:55.119334,-0.20671937,1.3134913,-0.6769298,-3.0250046,0.036193766,2.9773571
885,2026-05-11 16:08:55.121990,-0.20671937,1.3134913,-0.6769298,-3.0250046,0.036193766,2.9773571
886,2026-05-11 16:08:55.124575,-0.20671937,1.3134913,-0.6769298,-3.0250046,0.036193766,2.9773571
887,2026-05-11 16:08:55.127233,-0.20671937,1.3134913,-0.6769298,-3.0250046,0.036193766,2.9773571
888,2026-05-11 16:08:55.129825,-0.20671937,1.3134913,-0.6769298,-3.0250046,0.036193766,2.9773571
889,2026-05-11 16:08:55.132806,-0.20671937,1.3134913,-0.6769298,-3.0250046,0.036193766,2.9773571
890,2026-05-11 16:08:55.135654,-0.20671937,1.3134913,-0.6769298,-3.0250046,0.036193766,2.9773571
891,2026-05-11 16:08:55.138235,-0.20671937,1.3134913,-0.6769298,-3.0250046,0.036193766,2.9773571
892,2026-05-11 16:08:55.141037,-0.20671937,1.3134913,-0.6769298,-3.0250046,0.036193766,2.9773571
893,2026-05-11 16:08:55.143802,-0.20671937,1.3134913,-0.6769298,-3.0250046,0.036193766,2.9773571
894,2026-05-11 16:08:55.146504,-0.20671937,1.3134913,-0.6769298,-3.0250046,0.036193766,2.9773571
895,2026-05-11 16:08:55.149192,-0.20671937,1.3134913,-0.6769298,-3.0250046,0.036193766,2.9773571
896,2026-05-11 16:08:55.152317,-0.20671937,1.3134913,-0.6769298,-3.0250046,0.036193766,2.9773571
897,2026-05-11 16:08:55.154962,-0.20671937,1.3134913,-0.6769298,-3.0250046,0.036193766,2.9773571
898,2026-05-11 16:08:55.157754,-0.20671937,1.3134913,-0.6769298,-3.2951598,0.09101892,2.83808
899,2026-05-11 16:08:55.160389,-0.20671937,1.3134913,-0.6769298,-3.2951598,0.09101892,2.83808
900,2026-05-11 16:08:55.163213,-0.20671937,1.3134913,-0.6769298,-3.2951598,0.09101892,2.83808
901,2026-05-11 16:08:55.165856,-0.20671937,1.3134913,-0.6769298,-3.2951598,0.09101892,2.83808
902,2026-05-11 16:08:55.169064,-0.20671937,1.3134913,-0.6769298,-3.2951598,0.09101892,2.83808
903,2026-05-11 16:08:55.171748,-0.20671937,1.3134913,-0.6769298,-3.2951598,0.09101892,2.83808
904,2026-05-11 16:08:55.174346,-0.20671937,1.3134913,-0.6769298,-3.2951598,0.09101892,2.83808
905,2026-05-11 16:08:55.177111,-0.20671937,1.3134913,-0.6769298,-3.2951598,0.09101892,2.83808
906,2026-05-11 16:08:55.179691,-0.20671937,1.3134913,-0.6769298,-3.2951598,0.09101892,2.83808
907,2026-05-11 16:08:55.182456,-0.20671937,1.3134913,-0.6769298,-3.2951598,0.09101892,2.83808
908,2026-05-11 16:08:55.185423,-0.20671937,1.3134913,-0.6769298,-3.2951598,0.09101892,2.83808
909,2026-05-11 16:08:55.188246,-0.20671937,1.3134913,-0.6769298,-3.2951598,0.09101892,2.83808
910,2026-05-11 16:08:55.191039,-0.20671937,1.3134913,-0.6769298,-3.2951598,0.09101892,2.83808
911,2026-05-11 16:08:55.193709,-0.20671937,1.3134913,-0.6769298,-3.2951598,0.09101892,2.83808
912,2026-05-11 16:08:55.196483,-0.20671937,1.3134913,-0.6769298,-3.2951598,0.09101892,2.83808
913,2026-05-11 16:08:55.199252,-0.21550037,1.3650187,-0.48893097,-3.2951598,0.09101892,2.83808
914,2026-05-11 16:08:55.202797,-0.21550037,1.3650187,-0.48893097,-3.2951598,0.09101892,2.83808
915,2026-05-11 16:08:55.205529,-0.21550037,1.3650187,-0.48893097,-3.2951598,0.09101892,2.83808
916,2026-05-11 16:08:55.208162,-0.21550037,1.3650187,-0.48893097,-3.2951598,0.09101892,2.83808
917,2026-05-11 16:08:55.210775,-0.21550037,1.3650187,-0.48893097,-3.2951598,0.09101892,2.83808
918,2026-05-11 16:08:55.213542,-0.21550037,1.3650187,-0.48893097,-3.2951598,0.09101892,2.83808
919,2026-05-11 16:08:55.216171,-0.21550037,1.3650187,-0.48893097,-3.2951598,0.09101892,2.83808
920,2026-05-11 16:08:55.219497,-0.21550037,1.3650187,-0.48893097,-3.2951598,0.09101892,2.83808
921,2026-05-11 16:08:55.222426,-0.21550037,1.3650187,-0.48893097,-3.2951598,0.09101892,2.83808
922,2026-05-11 16:08:55.225060,-0.21550037,1.3650187,-0.48893097,-3.2951598,0.09101892,2.83808
923,2026-05-11 16:08:55.227758,-0.21550037,1.3650187,-0.48893097,-3.2951598,0.09101892,2.83808
924,2026-05-11 16:08:55.230559,-0.21550037,1.3650187,-0.48893097,-3.2951598,0.09101892,2.83808
925,2026-05-11 16:08:55.233374,-0.21550037,1.3650187,-0.48893097,-3.2951598,0.09101892,2.83808
926,2026-05-11 16:08:55.236380,-0.21550037,1.3650187,-0.48893097,-3.2951598,0.09101892,2.83808
927,2026-05-11 16:08:55.238970,-0.21550037,1.3650187,-0.48893097,-3.2951598,0.09101892,2.83808
928,2026-05-11 16:08:55.241541,-0.21550037,1.3650187,-0.48893097,-3.2951598,0.09101892,2.83808
929,2026-05-11 16:08:55.244274,-0.21550037,1.3650187,-0.48893097,-3.2951598,0.09101892,2.83808
930,2026-05-11 16:08:55.246854,-0.21550037,1.3650187,-0.48893097,-3.2951598,0.09101892,2.83808
931,2026-05-11 16:08:55.249909,-0.21550037,1.3650187,-0.48893097,-3.2951598,0.09101892,2.83808
932,2026-05-11 16:08:55.252697,-0.21550037,1.3650187,-0.48893097,-3.2951598,0.09101892,2.83808
933,2026-05-11 16:08:55.255561,-0.21550037,1.3650187,-0.48893097,-3.3692272,0.31719178,2.7733283
934,2026-05-11 16:08:55.258160,-0.21550037,1.3650187,-0.48893097,-3.3692272,0.31719178,2.7733283
935,2026-05-11 16:08:55.260743,-0.21550037,1.3650187,-0.48893097,-3.3692272,0.31719178,2.7733283
936,2026-05-11 16:08:55.263438,-0.21550037,1.3650187,-0.48893097,-3.3692272,0.31719178,2.7733283
937,2026-05-11 16:08:55.266036,-0.21550037,1.3650187,-0.48893097,-3.3692272,0.31719178,2.7733283
938,2026-05-11 16:08:55.269039,-0.21550037,1.3650187,-0.48893097,-3.2372804,0.44073927,2.7375927
939,2026-05-11 16:08:55.271681,-0.21550037,1.3650187,-0.48893097,-3.2372804,0.44073927,2.7375927
940,2026-05-11 16:08:55.274211,-0.21550037,1.3650187,-0.48893097,-3.2372804,0.44073927,2.7375927
941,2026-05-11 16:08:55.276793,-0.21550037,1.3650187,-0.48893097,-3.2372804,0.44073927,2.7375927
942,2026-05-11 16:08:55.279452,-0.21550037,1.3650187,-0.48893097,-3.2372804,0.44073927,2.7375927
943,2026-05-11 16:08:55.282009,-0.21550037,1.3650187,-0.48893097,-3.2372804,0.44073927,2.7375927
944,2026-05-11 16:08:55.285102,-0.21550037,1.3650187,-0.48893097,-3.2372804,0.44073927,2.7375927
945,2026-05-11 16:08:55.287936,-0.21550037,1.3650187,-0.48893097,-3.2372804,0.44073927,2.7375927
946,2026-05-11 16:08:55.290664,-0.21550037,1.3650187,-0.48893097,-3.2372804,0.44073927,2.7375927
947,2026-05-11 16:08:55.293316,-0.19043794,1.4072772,-0.35191077,-3.2372804,0.44073927,2.7375927
948,2026-05-11 16:08:55.295864,-0.19043794,1.4072772,-0.35191077,-3.2372804,0.44073927,2.7375927
949,2026-05-11 16:08:55.298547,-0.19043794,1.4072772,-0.35191077,-3.2372804,0.44073927,2.7375927
950,2026-05-11 16:08:55.301541,-0.19043794,1.4072772,-0.35191077,-3.2372804,0.44073927,2.7375927
951,2026-05-11 16:08:55.304413,-0.19043794,1.4072772,-0.35191077,-3.2372804,0.44073927,2.7375927
952,2026-05-11 16:08:55.307054,-0.19043794,1.4072772,-0.35191077,-3.2372804,0.44073927,2.7375927
953,2026-05-11 16:08:55.309916,-0.19043794,1.4072772,-0.35191077,-3.2372804,0.44073927,2.7375927
954,2026-05-11 16:08:55.312809,0.05329579,1.6768662,-0.09848136,-0.25702155,0.38774672,2.2667682
955,2026-05-11 16:08:55.315445,0.05329579,1.6768662,-0.09848136,-0.25702155,0.38774672,2.2667682
956,2026-05-11 16:08:55.318527,0.05329579,1.6768662,-0.09848136,-0.25702155,0.38774672,2.2667682
957,2026-05-11 16:08:55.321343,0.05329579,1.6768662,-0.09848136,-0.25702155,0.38774672,2.2667682
958,2026-05-11 16:08:55.324008,0.05329579,1.6768662,-0.09848136,-0.25702155,0.38774672,2.2667682
959,2026-05-11 16:08:55.326725,0.05329579,1.6768662,-0.09848136,-0.25702155,0.38774672,2.2667682
960,2026-05-11 16:08:55.329293,0.05329579,1.6768662,-0.09848136,-0.25702155,0.38774672,2.2667682
961,2026-05-11 16:08:55.332074,0.05329579,1.6768662,-0.09848136,-0.25702155,0.38774672,2.2667682
962,2026-05-11 16:08:55.335164,0.05329579,1.6768662,-0.09848136,0.98670006,0.3930918,1.7476854
963,2026-05-11 16:08:55.338136,0.05329579,1.6768662,-0.09848136,0.98670006,0.3930918,1.7476854
964,2026-05-11 16:08:55.340788,0.05329579,1.6768662,-0.09848136,0.98670006,0.3930918,1.7476854
965,2026-05-11 16:08:55.343409,0.05329579,1.6768662,-0.09848136,0.98670006,0.3930918,1.7476854
966,2026-05-11 16:08:55.345994,0.05329579,1.6768662,-0.09848136,0.98670006,0.3930918,1.7476854
967,2026-05-11 16:08:55.348767,0.05329579,1.6768662,-0.09848136,0.98670006,0.3930918,1.7476854
968,2026-05-11 16:08:55.351808,0.18958424,1.7422358,-0.3956938,0.98670006,0.3930918,1.7476854
969,2026-05-11 16:08:55.354552,0.18958424,1.7422358,-0.3956938,0.98670006,0.3930918,1.7476854
970,2026-05-11 16:08:55.357156,0.18958424,1.7422358,-0.3956938,0.98670006,0.3930918,1.7476854
971,2026-05-11 16:08:55.359993,0.3158111,1.7852261,-0.7587638,0.98670006,0.3930918,1.7476854
972,2026-05-11 16:08:55.362698,0.3158111,1.7852261,-0.7587638,0.98670006,0.3930918,1.7476854
973,2026-05-11 16:08:55.365337,0.3158111,1.7852261,-0.7587638,0.98670006,0.3930918,1.7476854
974,2026-05-11 16:08:55.368255,0.3158111,1.7852261,-0.7587638,0.98670006,0.3930918,1.7476854
975,2026-05-11 16:08:55.371068,0.3158111,1.7852261,-0.7587638,0.98670006,0.3930918,1.7476854
976,2026-05-11 16:08:55.373806,0.3158111,1.7852261,-0.7587638,0.98670006,0.3930918,1.7476854
977,2026-05-11 16:08:55.376552,0.3158111,1.7852261,-0.7587638,1.5282321,0.3200934,1.281748
978,2026-05-11 16:08:55.379169,0.3158111,1.7852261,-0.7587638,1.5282321,0.3200934,1.281748
979,2026-05-11 16:08:55.381905,0.3158111,1.7852261,-0.7587638,1.5282321,0.3200934,1.281748
980,2026-05-11 16:08:55.384957,0.3158111,1.7852261,-0.7587638,1.5282321,0.3200934,1.281748
981,2026-05-11 16:08:55.387860,0.3158111,1.7852261,-0.7587638,1.5282321,0.3200934,1.281748
982,2026-05-11 16:08:55.390640,0.39270583,1.7603467,-1.0774409,1.5282321,0.3200934,1.281748
983,2026-05-11 16:08:55.393292,0.39270583,1.7603467,-1.0774409,1.5282321,0.3200934,1.281748
984,2026-05-11 16:08:55.395882,0.39270583,1.7603467,-1.0774409,1.5282321,0.3200934,1.281748
985,2026-05-11 16:08:55.398789,0.39270583,1.7603467,-1.0774409,1.5282321,0.3200934,1.281748
986,2026-05-11 16:08:55.401836,0.39270583,1.7603467,-1.0774409,1.5282321,0.3200934,1.281748
987,2026-05-11 16:08:55.404509,0.39270583,1.7603467,-1.0774409,1.5282321,0.3200934,1.281748
988,2026-05-11 16:08:55.407082,0.39270583,1.7603467,-1.0774409,1.5282321,0.3200934,1.281748
989,2026-05-11 16:08:55.409812,0.39270583,1.7603467,-1.0774409,1.5282321,0.3200934,1.281748
990,2026-05-11 16:08:55.412404,0.39270583,1.7603467,-1.0774409,1.5282321,0.3200934,1.281748
991,2026-05-11 16:08:55.415149,0.39270583,1.7603467,-1.0774409,1.905136,0.16294831,0.1459968
992,2026-05-11 16:08:55.418256,0.25044146,1.572104,-1.3458103,1.7142406,0.20540343,-0.54321194
993,2026-05-11 16:08:55.421141,0.25044146,1.572104,-1.3458103,1.7142406,0.20540343,-0.54321194
994,2026-05-11 16:08:55.423790,0.25044146,1.572104,-1.3458103,1.7142406,0.20540343,-0.54321194
995,2026-05-11 16:08:55.426407,0.25044146,1.572104,-1.3458103,1.7142406,0.20540343,-0.54321194
996,2026-05-11 16:08:55.429088,0.25044146,1.572104,-1.3458103,1.7142406,0.20540343,-0.54321194
997,2026-05-11 16:08:55.431656,0.25044146,1.572104,-1.3458103,1.7142406,0.20540343,-0.54321194
998,2026-05-11 16:08:55.434931,0.25044146,1.572104,-1.3458103,1.4424056,0.23411411,-0.9990701
999,2026-05-11 16:08:55.437768,0.17921777,1.436974,-1.3220893,1.4424056,0.23411411,-0.9990701
1000,2026-05-11 16:08:55.440584,0.17921777,1.436974,-1.3220893,1.4424056,0.23411411,-0.9990701
1001,2026-05-11 16:08:55.443265,0.17921777,1.436974,-1.3220893,1.4424056,0.23411411,-0.9990701
1002,2026-05-11 16:08:55.446021,0.17921777,1.436974,-1.3220893,1.4424056,0.23411411,-0.9990701
1003,2026-05-11 16:08:55.448732,0.17921777,1.436974,-1.3220893,1.4424056,0.23411411,-0.9990701
1004,2026-05-11 16:08:55.451953,0.17921777,1.436974,-1.3220893,1.4424056,0.23411411,-0.9990701
1005,2026-05-11 16:08:55.454611,0.17921777,1.436974,-1.3220893,1.4424056,0.23411411,-0.9990701
1006,2026-05-11 16:08:55.457403,0.17921777,1.436974,-1.3220893,1.4424056,0.23411411,-0.9990701
1007,2026-05-11 16:08:55.459988,0.17921777,1.436974,-1.3220893,1.4424056,0.23411411,-0.9990701
1008,2026-05-11 16:08:55.462777,0.17921777,1.436974,-1.3220893,1.4424056,0.23411411,-0.9990701
1009,2026-05-11 16:08:55.465514,0.17921777,1.436974,-1.3220893,1.4424056,0.23411411,-0.9990701
1010,2026-05-11 16:08:55.468568,0.17921777,1.436974,-1.3220893,1.4424056,0.23411411,-0.9990701
1011,2026-05-11 16:08:55.471424,0.17921777,1.436974,-1.3220893,1.3707817,0.19074267,-1.1763737
1012,2026-05-11 16:08:55.474167,0.17921777,1.436974,-1.3220893,1.3707817,0.19074267,-1.1763737
1013,2026-05-11 16:08:55.476757,0.17921777,1.436974,-1.3220893,1.3707817,0.19074267,-1.1763737
1014,2026-05-11 16:08:55.479484,0.17921777,1.436974,-1.3220893,1.3707817,0.19074267,-1.1763737
1015,2026-05-11 16:08:55.482082,0.17921777,1.436974,-1.3220893,1.3707817,0.19074267,-1.1763737
1016,2026-05-11 16:08:55.485264,0.17921777,1.436974,-1.3220893,1.3707817,0.19074267,-1.1763737
1017,2026-05-11 16:08:55.488060,0.17921777,1.436974,-1.3220893,1.3707817,0.19074267,-1.1763737
1018,2026-05-11 16:08:55.490669,0.17921777,1.436974,-1.3220893,1.3707817,0.19074267,-1.1763737
1019,2026-05-11 16:08:55.493258,0.17921777,1.436974,-1.3220893,1.3707817,0.19074267,-1.1763737
1020,2026-05-11 16:08:55.496054,0.17921777,1.436974,-1.3220893,1.3707817,0.19074267,-1.1763737
1021,2026-05-11 16:08:55.498663,0.17921777,1.436974,-1.3220893,1.3707817,0.19074267,-1.1763737
1022,2026-05-11 16:08:55.501676,0.17921777,1.436974,-1.3220893,1.3707817,0.19074267,-1.1763737
1023,2026-05-11 16:08:55.504391,0.17921777,1.436974,-1.3220893,1.3707817,0.19074267,-1.1763737
1024,2026-05-11 16:08:55.507001,0.17921777,1.436974,-1.3220893,1.3707817,0.19074267,-1.1763737
1025,2026-05-11 16:08:55.509887,0.12836114,1.3367853,-1.2685496,1.3707817,0.19074267,-1.1763737
1026,2026-05-11 16:08:55.512637,0.12836114,1.3367853,-1.2685496,1.3707817,0.19074267,-1.1763737
1027,2026-05-11 16:08:55.515306,0.12836114,1.3367853,-1.2685496,1.3707817,0.19074267,-1.1763737
1028,2026-05-11 16:08:55.518526,0.12836114,1.3367853,-1.2685496,1.3707817,0.19074267,-1.1763737
1029,2026-05-11 16:08:55.521275,0.12836114,1.3367853,-1.2685496,1.3707817,0.19074267,-1.1763737
1030,2026-05-11 16:08:55.523965,0.12836114,1.3367853,-1.2685496,1.366811,-0.02611449,-1.4619533
1031,2026-05-11 16:08:55.526842,0.10622571,1.22934,-1.1666535,1.366811,-0.02611449,-1.4619533
1032,2026-05-11 16:08:55.529515,0.10622571,1.22934,-1.1666535,1.366811,-0.02611449,-1.4619533
1033,2026-05-11 16:08:55.532299,0.10622571,1.22934,-1.1666535,1.366811,-0.02611449,-1.4619533
1034,2026-05-11 16:08:55.535534,0.10622571,1.22934,-1.1666535,1.366811,-0.02611449,-1.4619533
1035,2026-05-11 16:08:55.538401,0.10622571,1.22934,-1.1666535,1.366811,-0.02611449,-1.4619533
1036,2026-05-11 16:08:55.541068,0.10622571,1.22934,-1.1666535,1.366811,-0.02611449,-1.4619533
1037,2026-05-11 16:08:55.543760,0.10622571,1.22934,-1.1666535,1.366811,-0.02611449,-1.4619533
1038,2026-05-11 16:08:55.546515,0.10622571,1.22934,-1.1666535,1.4199562,-0.13652839,-1.5375478
1039,2026-05-11 16:08:55.549162,0.10622571,1.22934,-1.1666535,1.4199562,-0.13652839,-1.5375478
1040,2026-05-11 16:08:55.552120,0.10567689,1.1982406,-1.1302489,1.4199562,-0.13652839,-1.5375478
1041,2026-05-11 16:08:55.554868,0.10567689,1.1982406,-1.1302489,1.4199562,-0.13652839,-1.5375478
1042,2026-05-11 16:08:55.557440,0.10567689,1.1982406,-1.1302489,1.4199562,-0.13652839,-1.5375478
1043,2026-05-11 16:08:55.560034,0.10567689,1.1982406,-1.1302489,1.4199562,-0.13652839,-1.5375478
1044,2026-05-11 16:08:55.562890,0.10567689,1.1982406,-1.1302489,1.4199562,-0.13652839,-1.5375478
1045,2026-05-11 16:08:55.565680,0.10567689,1.1982406,-1.1302489,1.4199562,-0.13652839,-1.5375478
1046,2026-05-11 16:08:55.569350,0.10567689,1.1982406,-1.1302489,1.7185167,-0.6427829,-1.8044959
1047,2026-05-11 16:08:55.572267,0.10567689,1.1982406,-1.1302489,1.7185167,-0.6427829,-1.8044959
1048,2026-05-11 16:08:55.574887,0.10567689,1.1982406,-1.1302489,1.7185167,-0.6427829,-1.8044959
1049,2026-05-11 16:08:55.577794,0.30081022,1.165007,-0.88810056,2.0189097,-0.99189246,-2.0674734
1050,2026-05-11 16:08:55.580494,0.30081022,1.165007,-0.88810056,2.0189097,-0.99189246,-2.0674734
1051,2026-05-11 16:08:55.583336,0.32562876,1.1206142,-0.8365122,2.0189097,-0.99189246,-2.0674734
1052,2026-05-11 16:08:55.586865,0.32562876,1.1206142,-0.8365122,2.0189097,-0.99189246,-2.0674734
1053,2026-05-11 16:08:55.589685,0.32562876,1.1206142,-0.8365122,2.0189097,-0.99189246,-2.0674734
1054,2026-05-11 16:08:55.592496,0.32562876,1.1206142,-0.8365122,2.0189097,-0.99189246,-2.0674734
1055,2026-05-11 16:08:55.595385,0.32562876,1.1206142,-0.8365122,2.279291,-1.2348641,-2.3977988
1056,2026-05-11 16:08:55.598127,0.09848136,1.0470732,-0.73046947,2.6659687,-1.5184582,-2.8360946
1057,2026-05-11 16:08:55.601110,0.09848136,1.0470732,-0.73046947,2.6659687,-1.5184582,-2.8360946
1058,2026-05-11 16:08:55.603983,0.09848136,1.0470732,-0.73046947,2.6659687,-1.5184582,-2.8360946
1059,2026-05-11 16:08:55.606653,0.09848136,1.0470732,-0.73046947,2.6659687,-1.5184582,-2.8360946
1060,2026-05-11 16:08:55.609236,0.09848136,1.0470732,-0.73046947,2.6659687,-1.5184582,-2.8360946
1061,2026-05-11 16:08:55.611995,0.09848136,1.0470732,-0.73046947,2.6659687,-1.5184582,-2.8360946
1062,2026-05-11 16:08:55.614591,0.09848136,1.0470732,-0.73046947,2.6659687,-1.5184582,-2.8360946
1063,2026-05-11 16:08:55.617732,0.09848136,1.0470732,-0.73046947,2.6659687,-1.5184582,-2.8360946
1064,2026-05-11 16:08:55.620448,0.09848136,1.0470732,-0.73046947,2.6659687,-1.5184582,-2.8360946
1065,2026-05-11 16:08:55.623037,0.09848136,1.0470732,-0.73046947,2.6659687,-1.5184582,-2.8360946
1066,2026-05-11 16:08:55.625640,0.09848136,1.0470732,-0.73046947,2.6659687,-1.5184582,-2.8360946
1067,2026-05-11 16:08:55.628224,0.09848136,1.0470732,-0.73046947,2.6659687,-1.5184582,-2.8360946
1068,2026-05-11 16:08:55.630995,0.09848136,1.0470732,-0.73046947,2.6659687,-1.5184582,-2.8360946
1069,2026-05-11 16:08:55.634123,0.09848136,1.0470732,-0.73046947,2.6659687,-1.5184582,-2.8360946
1070,2026-05-11 16:08:55.636963,0.09848136,1.0470732,-0.73046947,2.6659687,-1.5184582,-2.8360946
1071,2026-05-11 16:08:55.639674,0.09848136,1.0470732,-0.73046947,2.6659687,-1.5184582,-2.8360946
1072,2026-05-11 16:08:55.642440,-0.017683959,1.03006,-0.69741875,2.6659687,-1.5184582,-2.8360946
1073,2026-05-11 16:08:55.645109,-0.017683959,1.03006,-0.69741875,2.6659687,-1.5184582,-2.8360946
1074,2026-05-11 16:08:55.647861,-0.017683959,1.03006,-0.69741875,2.8501446,-1.5658003,-2.872441
1075,2026-05-11 16:08:55.650886,-0.017683959,1.03006,-0.69741875,2.8501446,-1.5658003,-2.872441
1076,2026-05-11 16:08:55.653739,-0.017683959,1.03006,-0.69741875,2.8501446,-1.5658003,-2.872441
1077,2026-05-11 16:08:55.656355,-0.017683959,1.03006,-0.69741875,2.8501446,-1.5658003,-2.872441
1078,2026-05-11 16:08:55.659111,-0.017683959,1.03006,-0.69741875,2.8501446,-1.5658003,-2.872441
1079,2026-05-11 16:08:55.661774,-0.017683959,1.03006,-0.69741875,2.8501446,-1.5658003,-2.872441
1080,2026-05-11 16:08:55.664585,-0.017683959,1.03006,-0.69741875,2.8501446,-1.5658003,-2.872441
1081,2026-05-11 16:08:55.667512,-0.017683959,1.03006,-0.69741875,2.8501446,-1.5658003,-2.872441
1082,2026-05-11 16:08:55.670493,-0.017683959,1.03006,-0.69741875,2.8501446,-1.5658003,-2.872441
1083,2026-05-11 16:08:55.673173,-0.017683959,1.03006,-0.69741875,2.8501446,-1.5658003,-2.872441
1084,2026-05-11 16:08:55.675809,-0.017683959,1.03006,-0.69741875,2.8501446,-1.5658003,-2.872441
1085,2026-05-11 16:08:55.678419,-0.017683959,1.03006,-0.69741875,2.8501446,-1.5658003,-2.872441
1086,2026-05-11 16:08:55.681176,-0.2725159,0.97798395,-0.641074,2.8501446,-1.5658003,-2.872441
1087,2026-05-11 16:08:55.684138,-0.2725159,0.97798395,-0.641074,2.8501446,-1.5658003,-2.872441
1088,2026-05-11 16:08:55.686881,-0.2725159,0.97798395,-0.641074,2.8501446,-1.5658003,-2.872441
1089,2026-05-11 16:08:55.689451,-0.2725159,0.97798395,-0.641074,2.8501446,-1.5658003,-2.872441
1090,2026-05-11 16:08:55.692030,-0.2725159,0.97798395,-0.641074,2.8501446,-1.5658003,-2.872441
1091,2026-05-11 16:08:55.694840,-0.2725159,0.97798395,-0.641074,2.8501446,-1.5658003,-2.872441
1092,2026-05-11 16:08:55.697505,-0.2725159,0.97798395,-0.641074,2.8501446,-1.5658003,-2.872441
1093,2026-05-11 16:08:55.700447,-0.2725159,0.97798395,-0.641074,2.8501446,-1.5658003,-2.872441
1094,2026-05-11 16:08:55.703574,-0.2725159,0.97798395,-0.641074,3.1219795,-1.5022703,-2.6256516
1095,2026-05-11 16:08:55.706229,-0.2725159,0.97798395,-0.641074,3.1219795,-1.5022703,-2.6256516
1096,2026-05-11 16:08:55.708841,-0.2725159,0.97798395,-0.641074,3.1219795,-1.5022703,-2.6256516
1097,2026-05-11 16:08:55.711594,-0.2725159,0.97798395,-0.641074,3.1219795,-1.5022703,-2.6256516
1098,2026-05-11 16:08:55.714205,-0.2725159,0.97798395,-0.641074,3.1219795,-1.5022703,-2.6256516
1099,2026-05-11 16:08:55.717121,-0.2725159,0.97798395,-0.641074,3.1219795,-1.5022703,-2.6256516
1100,2026-05-11 16:08:55.719993,-0.2725159,0.97798395,-0.641074,3.1219795,-1.5022703,-2.6256516
1101,2026-05-11 16:08:55.722587,-0.2725159,0.97798395,-0.641074,3.1219795,-1.5022703,-2.6256516
1102,2026-05-11 16:08:55.725198,-0.2725159,0.97798395,-0.641074,3.1219795,-1.5022703,-2.6256516
1103,2026-05-11 16:08:55.727987,-0.2725159,0.97798395,-0.641074,3.1219795,-1.5022703,-2.6256516
1104,2026-05-11 16:08:55.730597,-0.2725159,0.97798395,-0.641074,3.1219795,-1.5022703,-2.6256516
1105,2026-05-11 16:08:55.733864,-0.34117845,0.9202976,-0.7013824,3.367853,-1.3913983,-2.1586452
1106,2026-05-11 16:08:55.736646,-0.34117845,0.9202976,-0.7013824,3.367853,-1.3913983,-2.1586452
1107,2026-05-11 16:08:55.739496,-0.34117845,0.9202976,-0.7013824,3.367853,-1.3913983,-2.1586452
1108,2026-05-11 16:08:55.742202,-0.2678205,0.9101751,-0.76102,3.367853,-1.3913983,-2.1586452
1109,2026-05-11 16:08:55.745023,-0.2678205,0.9101751,-0.76102,3.367853,-1.3913983,-2.1586452
1110,2026-05-11 16:08:55.747645,-0.2678205,0.9101751,-0.76102,3.4562755,-1.3767376,-1.8727602
1111,2026-05-11 16:08:55.750768,-0.2678205,0.9101751,-0.76102,3.4562755,-1.3767376,-1.8727602
1112,2026-05-11 16:08:55.753706,-0.2678205,0.9101751,-0.76102,3.4562755,-1.3767376,-1.8727602
1113,2026-05-11 16:08:55.756422,-0.2678205,0.9101751,-0.76102,3.4562755,-1.3767376,-1.8727602
1114,2026-05-11 16:08:55.759119,-0.2678205,0.9101751,-0.76102,3.4562755,-1.3767376,-1.8727602
1115,2026-05-11 16:08:55.761801,-0.2678205,0.9101751,-0.76102,3.4562755,-1.3767376,-1.8727602
1116,2026-05-11 16:08:55.764557,-0.14366692,0.89352775,-0.8491959,3.5013268,-1.4069754,-1.6985108
1117,2026-05-11 16:08:55.767567,-0.14366692,0.89352775,-0.8491959,3.5013268,-1.4069754,-1.6985108
1118,2026-05-11 16:08:55.770317,-0.14366692,0.89352775,-0.8491959,3.5013268,-1.4069754,-1.6985108
1119,2026-05-11 16:08:55.773059,-0.14366692,0.89352775,-0.8491959,3.5013268,-1.4069754,-1.6985108
1120,2026-05-11 16:08:55.775648,-0.14366692,0.89352775,-0.8491959,3.5013268,-1.4069754,-1.6985108
1121,2026-05-11 16:08:55.778427,-0.14366692,0.89352775,-0.8491959,3.5013268,-1.4069754,-1.6985108
1122,2026-05-11 16:08:55.781022,-0.14366692,0.89352775,-0.8491959,3.5013268,-1.4069754,-1.6985108
1123,2026-05-11 16:08:55.784017,-0.14366692,0.89352775,-0.8491959,3.5013268,-1.4069754,-1.6985108
1124,2026-05-11 16:08:55.787226,-0.14366692,0.89352775,-0.8491959,3.5013268,-1.4069754,-1.6985108
1125,2026-05-11 16:08:55.789896,-0.14366692,0.89352775,-0.8491959,3.5013268,-1.4069754,-1.6985108
1126,2026-05-11 16:08:55.792486,-0.14366692,0.89352775,-0.8491959,3.5013268,-1.4069754,-1.6985108
1127,2026-05-11 16:08:55.795277,-0.14366692,0.89352775,-0.8491959,3.5013268,-1.4069754,-1.6985108
1128,2026-05-11 16:08:55.797846,-0.14366692,0.89352775,-0.8491959,3.5013268,-1.4069754,-1.6985108
1129,2026-05-11 16:08:55.800963,-0.14366692,0.89352775,-0.8491959,3.5013268,-1.4069754,-1.6985108
1130,2026-05-11 16:08:55.803656,-0.14366692,0.89352775,-0.8491959,3.5013268,-1.4069754,-1.6985108
1131,2026-05-11 16:08:55.806260,-0.14366692,0.89352775,-0.8491959,3.5013268,-1.4069754,-1.6985108
1132,2026-05-11 16:08:55.809044,-0.14366692,0.89352775,-0.8491959,3.5013268,-1.4069754,-1.6985108
1133,2026-05-11 16:08:55.811710,-0.14366692,0.89352775,-0.8491959,3.5013268,-1.4069754,-1.6985108
1134,2026-05-11 16:08:55.814388,-0.14366692,0.89352775,-0.8491959,3.5013268,-1.4069754,-1.6985108
1135,2026-05-11 16:08:55.817303,-0.14366692,0.89352775,-0.8491959,3.5013268,-1.4069754,-1.6985108
1136,2026-05-11 16:08:55.820335,-0.14366692,0.89352775,-0.8491959,3.5013268,-1.4069754,-1.6985108
1137,2026-05-11 16:08:55.822966,-0.14366692,0.89352775,-0.8491959,3.5013268,-1.4069754,-1.6985108
1138,2026-05-11 16:08:55.825481,-0.14366692,0.89352775,-0.8491959,3.5013268,-1.4069754,-1.6985108
1139,2026-05-11 16:08:55.828153,-0.14366692,0.89352775,-0.8491959,3.5013268,-1.4069754,-1.6985108
1140,2026-05-11 16:08:55.830704,-0.14366692,0.89352775,-0.8491959,3.5013268,-1.4069754,-1.6985108
1141,2026-05-11 16:08:55.833829,-0.14366692,0.89352775,-0.8491959,3.5013268,-1.4069754,-1.6985108
1142,2026-05-11 16:08:55.836471,-0.14366692,0.89352775,-0.8491959,3.5013268,-1.4069754,-1.6985108
1143,2026-05-11 16:08:55.838984,-0.14366692,0.89352775,-0.8491959,3.5013268,-1.4069754,-1.6985108
1144,2026-05-11 16:08:55.841738,-0.14366692,0.89352775,-0.8491959,3.5013268,-1.4069754,-1.6985108
1145,2026-05-11 16:08:55.844328,-0.14366692,0.89352775,-0.8491959,3.5013268,-1.4069754,-1.6985108
1146,2026-05-11 16:08:55.847060,-0.14366692,0.89352775,-0.8491959,3.5013268,-1.4069754,-1.6985108
1147,2026-05-11 16:08:55.850049,-0.14366692,0.89352775,-0.8491959,3.5013268,-1.4069754,-1.6985108
1148,2026-05-11 16:08:55.852702,-0.14366692,0.89352775,-0.8491959,3.5013268,-1.4069754,-1.6985108
1149,2026-05-11 16:08:55.855370,-0.14366692,0.89352775,-0.8491959,3.5013268,-1.4069754,-1.6985108
1150,2026-05-11 16:08:55.857979,-0.122507155,0.8737705,-0.92901766,3.5013268,-1.4069754,-1.6985108
1151,2026-05-11 16:08:55.860707,-0.122507155,0.8737705,-0.92901766,3.4622314,-1.4795157,-1.7163786
1152,2026-05-11 16:08:55.863290,-0.122507155,0.8737705,-0.92901766,3.4622314,-1.4795157,-1.7163786
1153,2026-05-11 16:08:55.865857,-0.122507155,0.8737705,-0.92901766,3.4622314,-1.4795157,-1.7163786
1154,2026-05-11 16:08:55.868803,-0.122507155,0.8737705,-0.92901766,3.4622314,-1.4795157,-1.7163786
1155,2026-05-11 16:08:55.871513,-0.122507155,0.8737705,-0.92901766,3.4622314,-1.4795157,-1.7163786
1156,2026-05-11 16:08:55.874126,-0.2494048,0.78327745,-1.0928686,3.4622314,-1.4795157,-1.7163786
1157,2026-05-11 16:08:55.876685,-0.2494048,0.78327745,-1.0928686,3.4622314,-1.4795157,-1.7163786
1158,2026-05-11 16:08:55.879340,-0.35965514,0.71339524,-1.1022594,2.5702155,-1.4848607,-1.7524197
1159,2026-05-11 16:08:55.881848,-0.35965514,0.71339524,-1.1022594,2.5702155,-1.4848607,-1.7524197
1160,2026-05-11 16:08:55.884887,-0.35965514,0.71339524,-1.1022594,2.5702155,-1.4848607,-1.7524197
1161,2026-05-11 16:08:55.887726,-0.35965514,0.71339524,-1.1022594,2.5702155,-1.4848607,-1.7524197
1162,2026-05-11 16:08:55.890371,-0.35965514,0.71339524,-1.1022594,2.5702155,-1.4848607,-1.7524197
1163,2026-05-11 16:08:55.893210,-0.35965514,0.71339524,-1.1022594,2.5702155,-1.4848607,-1.7524197
1164,2026-05-11 16:08:55.896028,-0.37489992,0.6604044,-1.0289015,2.0015,-1.3507757,-1.4579827
1165,2026-05-11 16:08:55.898754,-0.37489992,0.6604044,-1.0289015,2.0015,-1.3507757,-1.4579827
1166,2026-05-11 16:08:55.902245,-0.37489992,0.6604044,-1.0289015,2.0015,-1.3507757,-1.4579827
1167,2026-05-11 16:08:55.905093,-0.37489992,0.6604044,-1.0289015,2.0015,-1.3507757,-1.4579827
1168,2026-05-11 16:08:55.907822,-0.34093451,0.54466593,-0.91468745,2.0015,-1.3507757,-1.4579827
1169,2026-05-11 16:08:55.910435,-0.34093451,0.54466593,-0.91468745,2.0015,-1.3507757,-1.4579827
1170,2026-05-11 16:08:55.913388,-0.34093451,0.54466593,-0.91468745,2.0015,-1.3507757,-1.4579827
1171,2026-05-11 16:08:55.916197,-0.34093451,0.54466593,-0.91468745,2.0015,-1.3507757,-1.4579827
1172,2026-05-11 16:08:55.919510,-0.34093451,0.54466593,-0.91468745,1.5479325,-1.2389874,-1.1798862
1173,2026-05-11 16:08:55.922301,-0.34093451,0.54466593,-0.91468745,1.5479325,-1.2389874,-1.1798862
1174,2026-05-11 16:08:55.924980,-0.34093451,0.54466593,-0.91468745,1.5479325,-1.2389874,-1.1798862
1175,2026-05-11 16:08:55.927609,-0.34093451,0.54466593,-0.91468745,1.5479325,-1.2389874,-1.1798862
1176,2026-05-11 16:08:55.930481,-0.34093451,0.54466593,-0.91468745,1.5479325,-1.2389874,-1.1798862
1177,2026-05-11 16:08:55.933447,-0.34093451,0.54466593,-0.91468745,1.5479325,-1.2389874,-1.1798862
1178,2026-05-11 16:08:55.936681,-0.34093451,0.54466593,-0.91468745,1.5479325,-1.2389874,-1.1798862
1179,2026-05-11 16:08:55.939337,-0.34093451,0.54466593,-0.91468745,1.5479325,-1.2389874,-1.1798862
1180,2026-05-11 16:08:55.942095,-0.34093451,0.54466593,-0.91468745,1.5479325,-1.2389874,-1.1798862
1181,2026-05-11 16:08:55.944698,-0.34093451,0.54466593,-0.91468745,1.5479325,-1.2389874,-1.1798862
1182,2026-05-11 16:08:55.947298,-0.34093451,0.54466593,-0.91468745,1.5479325,-1.2389874,-1.1798862
1183,2026-05-11 16:08:55.949903,-0.34093451,0.54466593,-0.91468745,1.5479325,-1.2389874,-1.1798862
1184,2026-05-11 16:08:55.953220,-0.34093451,0.54466593,-0.91468745,1.5479325,-1.2389874,-1.1798862
1185,2026-05-11 16:08:55.955911,-0.34093451,0.54466593,-0.91468745,1.5479325,-1.2389874,-1.1798862
1186,2026-05-11 16:08:55.958629,-0.34093451,0.54466593,-0.91468745,1.5479325,-1.2389874,-1.1798862
1187,2026-05-11 16:08:55.961438,-0.34093451,0.54466593,-0.91468745,1.5479325,-1.2389874,-1.1798862
1188,2026-05-11 16:08:55.964169,-0.38849828,0.46441734,-0.7977904,1.2495248,-1.1149818,-0.8349001
1189,2026-05-11 16:08:55.967104,-0.38849828,0.46441734,-0.7977904,1.2495248,-1.1149818,-0.8349001
1190,2026-05-11 16:08:55.969977,-0.38849828,0.46441734,-0.7977904,1.2495248,-1.1149818,-0.8349001
1191,2026-05-11 16:08:55.972597,-0.38849828,0.46441734,-0.7977904,1.2495248,-1.1149818,-0.8349001
1192,2026-05-11 16:08:55.975320,-0.38849828,0.46441734,-0.7977904,1.2495248,-1.1149818,-0.8349001
1193,2026-05-11 16:08:55.978079,-0.38849828,0.46441734,-0.7977904,1.2495248,-1.1149818,-0.8349001
1194,2026-05-11 16:08:55.980842,-0.4668565,0.39971846,-0.6779664,1.2495248,-1.1149818,-0.8349001
1195,2026-05-11 16:08:55.984004,-0.4668565,0.39971846,-0.6779664,1.2495248,-1.1149818,-0.8349001
1196,2026-05-11 16:08:55.986832,-0.4668565,0.39971846,-0.6779664,1.2495248,-1.1149818,-0.8349001
1197,2026-05-11 16:08:55.991521,-0.4668565,0.39971846,-0.6779664,1.2495248,-1.1149818,-0.8349001
1198,2026-05-11 16:08:56.015242,0.5127738,0.26879618,-0.34386152,1.3967434,-0.80909103,0.77747875
1199,2026-05-11 16:08:56.023505,0.91840726,0.13220283,-0.36697263,1.3967434,-0.80909103,0.77747875
1200,2026-05-11 16:08:56.028069,0.91840726,0.13220283,-0.36697263,1.3967434,-0.80909103,0.77747875
1201,2026-05-11 16:08:56.030844,0.91840726,0.13220283,-0.36697263,1.6615535,-0.8910997,0.45982882
1202,2026-05-11 16:08:56.034090,0.91840726,0.13220283,-0.36697263,1.6615535,-0.8910997,0.45982882
1203,2026-05-11 16:08:56.036845,0.91840726,0.13220283,-0.36697263,1.6615535,-0.8910997,0.45982882
1204,2026-05-11 16:08:56.039522,0.91840726,0.13220283,-0.36697263,1.6615535,-0.8910997,0.45982882
1205,2026-05-11 16:08:56.042305,0.91840726,0.13220283,-0.36697263,1.6615535,-0.8910997,0.45982882
1206,2026-05-11 16:08:56.045250,0.9435306,0.09342009,-0.44972134,1.6331482,-0.8888089,0.41584653
1207,2026-05-11 16:08:56.047989,0.9435306,0.09342009,-0.44972134,1.6331482,-0.8888089,0.41584653
1208,2026-05-11 16:08:56.051045,0.8719411,-0.022562291,-0.7069315,1.6331482,-0.8888089,0.41584653
1209,2026-05-11 16:08:56.053924,0.8719411,-0.022562291,-0.7069315,1.6331482,-0.8888089,0.41584653
1210,2026-05-11 16:08:56.056662,0.8719411,-0.022562291,-0.7069315,1.6331482,-0.8888089,0.41584653
1211,2026-05-11 16:08:56.059391,0.8719411,-0.022562291,-0.7069315,1.6331482,-0.8888089,0.41584653
1212,2026-05-11 16:08:56.062166,0.8719411,-0.022562291,-0.7069315,1.6331482,-0.8888089,0.41584653
1213,2026-05-11 16:08:56.064893,0.8347438,-0.15189911,-0.61832875,-0.017715093,0.91538155,1.2956452
1214,2026-05-11 16:08:56.067959,0.8347438,-0.15189911,-0.61832875,-0.017715093,0.91538155,1.2956452
1215,2026-05-11 16:08:56.070675,0.8347438,-0.15189911,-0.61832875,-0.017715093,0.91538155,1.2956452
1216,2026-05-11 16:08:56.073227,0.8347438,-0.15189911,-0.61832875,-0.017715093,0.91538155,1.2956452
1217,2026-05-11 16:08:56.076034,0.8347438,-0.15189911,-0.61832875,-0.017715093,0.91538155,1.2956452
1218,2026-05-11 16:08:56.078651,0.8347438,-0.15189911,-0.61832875,-0.017715093,0.91538155,1.2956452
1219,2026-05-11 16:08:56.081398,0.8347438,-0.15189911,-0.61832875,-0.017715093,0.91538155,1.2956452
1220,2026-05-11 16:08:56.084271,0.8347438,-0.15189911,-0.61832875,-0.017715093,0.91538155,1.2956452
1221,2026-05-11 16:08:56.087070,0.8347438,-0.15189911,-0.61832875,-0.017715093,0.91538155,1.2956452
1222,2026-05-11 16:08:56.089850,0.8347438,-0.15189911,-0.61832875,-0.017715093,0.91538155,1.2956452
1223,2026-05-11 16:08:56.092484,0.8347438,-0.15189911,-0.61832875,-0.017715093,0.91538155,1.2956452
1224,2026-05-11 16:08:56.095251,0.8347438,-0.15189911,-0.61832875,-0.017715093,0.91538155,1.2956452
1225,2026-05-11 16:08:56.097827,0.8347438,-0.15189911,-0.61832875,-0.017715093,0.91538155,1.2956452
1226,2026-05-11 16:08:56.101053,0.8347438,-0.15189911,-0.61832875,-0.017715093,0.91538155,1.2956452
1227,2026-05-11 16:08:56.103834,0.8347438,-0.15189911,-0.61832875,-0.017715093,0.91538155,1.2956452
1228,2026-05-11 16:08:56.106542,0.8724289,-0.283919,-0.43350092,-0.017715093,0.91538155,1.2956452
1229,2026-05-11 16:08:56.109163,0.8724289,-0.283919,-0.43350092,-0.017715093,0.91538155,1.2956452
1230,2026-05-11 16:08:56.111739,0.8724289,-0.283919,-0.43350092,-0.017715093,0.91538155,1.2956452
1231,2026-05-11 16:08:56.114489,0.8724289,-0.283919,-0.43350092,-0.017715093,0.91538155,1.2956452
1232,2026-05-11 16:08:56.117503,0.8724289,-0.283919,-0.43350092,-0.017715093,0.91538155,1.2956452
1233,2026-05-11 16:08:56.120362,0.8951132,-0.38032708,-0.30221277,-0.017715093,0.91538155,1.2956452
1234,2026-05-11 16:08:56.122955,0.8951132,-0.38032708,-0.30221277,-0.017715093,0.91538155,1.2956452
1235,2026-05-11 16:08:56.125516,0.8951132,-0.38032708,-0.30221277,-0.017715093,0.91538155,1.2956452
1236,2026-05-11 16:08:56.128153,0.8951132,-0.38032708,-0.30221277,-0.017715093,0.91538155,1.2956452
1237,2026-05-11 16:08:56.130740,0.8951132,-0.38032708,-0.30221277,-0.017715093,0.91538155,1.2956452
1238,2026-05-11 16:08:56.133693,0.8951132,-0.38032708,-0.30221277,-0.017715093,0.91538155,1.2956452
1239,2026-05-11 16:08:56.136553,0.8951132,-0.38032708,-0.30221277,-0.017715093,0.91538155,1.2956452
1240,2026-05-11 16:08:56.139146,0.8951132,-0.38032708,-0.30221277,-0.017715093,0.91538155,1.2956452
1241,2026-05-11 16:08:56.141890,0.8951132,-0.38032708,-0.30221277,-0.017715093,0.91538155,1.2956452
1242,2026-05-11 16:08:56.144525,0.8951132,-0.38032708,-0.30221277,-0.017715093,0.91538155,1.2956452
1243,2026-05-11 16:08:56.147210,0.8951132,-0.38032708,-0.30221277,-0.017715093,0.91538155,1.2956452
1244,2026-05-11 16:08:56.150146,0.8951132,-0.38032708,-0.30221277,-0.08536842,1.2475395,1.6178766
1245,2026-05-11 16:08:56.153237,0.8951132,-0.38032708,-0.30221277,-0.08536842,1.2475395,1.6178766
1246,2026-05-11 16:08:56.156047,0.9988388,-0.44069642,-0.20507295,0.21548271,1.2206615,2.0505219
1247,2026-05-11 16:08:56.158901,0.9988388,-0.44069642,-0.20507295,0.21548271,1.2206615,2.0505219
1248,2026-05-11 16:08:56.161699,1.1086622,-0.48167443,-0.20086539,0.6731735,0.96776325,2.3425155
1249,2026-05-11 16:08:56.164343,1.1086622,-0.48167443,-0.20086539,0.6731735,0.96776325,2.3425155
1250,2026-05-11 16:08:56.167467,1.1086622,-0.48167443,-0.20086539,0.6731735,0.96776325,2.3425155
1251,2026-05-11 16:08:56.170454,1.1086622,-0.48167443,-0.20086539,0.6731735,0.96776325,2.3425155
1252,2026-05-11 16:08:56.173105,1.1086622,-0.48167443,-0.20086539,0.6731735,0.96776325,2.3425155
1253,2026-05-11 16:08:56.175849,1.1086622,-0.48167443,-0.20086539,0.6731735,0.96776325,2.3425155
1254,2026-05-11 16:08:56.178814,1.4461819,-0.45411184,-0.3401418,1.29198,0.5885687,2.6282477
