id,timestamp,acc_x,acc_y,acc_z,gyro_x,gyro_y,gyro_z
1,2026-05-11 16:08:38.093681,-0.6173531,0.936762,1.009815,2.1885774,-5.0567427,0.07437284
2,2026-05-11 16:08:38.105130,-0.7094926,1.0295722,1.1664705,2.8351784,-5.3244543,0.13026701
3,2026-05-11 16:08:38.108276,-0.7094926,1.0295722,1.1664705,2.8351784,-5.3244543,0.13026701
4,2026-05-11 16:08:38.111212,-0.7094926,1.0295722,1.1664705,2.8351784,-5.3244543,0.13026701
5,2026-05-11 16:08:38.113909,-0.7094926,1.0295722,1.1664705,2.8351784,-5.3244543,0.13026701
6,2026-05-11 16:08:38.117010,-0.7094926,1.0295722,1.1664705,3.4110715,-5.378974,0.31780264
7,2026-05-11 16:08:38.120218,-0.7094926,1.0295722,1.1664705,3.4110715,-5.378974,0.31780264
8,2026-05-11 16:08:38.122910,-0.7094926,1.0295722,1.1664705,3.4110715,-5.378974,0.31780264
9,2026-05-11 16:08:38.125835,-0.7094926,1.0295722,1.1664705,3.4110715,-5.378974,0.31780264
10,2026-05-11 16:08:38.128607,-0.7094926,1.0295722,1.1664705,3.4110715,-5.378974,0.31780264
11,2026-05-11 16:08:38.131245,-0.7094926,1.0295722,1.1664705,3.4110715,-5.378974,0.31780264
12,2026-05-11 16:08:38.134245,-0.7094926,1.0295722,1.1664705,3.4110715,-5.378974,0.31780264
13,2026-05-11 16:08:38.137337,-0.7094926,1.0295722,1.1664705,3.4110715,-5.378974,0.31780264
14,2026-05-11 16:08:38.140191,-0.7094926,1.0295722,1.1664705,3.4110715,-5.378974,0.31780264
15,2026-05-11 16:08:38.142862,-0.7094926,1.0295722,1.1664705,3.4110715,-5.378974,0.31780264
16,2026-05-11 16:08:38.145460,-0.7094926,1.0295722,1.1664705,3.4110715,-5.378974,0.31780264
17,2026-05-11 16:08:38.148208,-0.7094926,1.0295722,1.1664705,3.4110715,-5.378974,0.31780264
18,2026-05-11 16:08:38.151320,-0.7094926,1.0295722,1.1664705,3.4110715,-5.378974,0.31780264
19,2026-05-11 16:08:38.154095,-0.7094926,1.0295722,1.1664705,3.4110715,-5.378974,0.31780264
20,2026-05-11 16:08:38.156665,-0.7094926,1.0295722,1.1664705,3.4110715,-5.378974,0.31780264
21,2026-05-11 16:08:38.159473,-0.7094926,1.0295722,1.1664705,3.4110715,-5.378974,0.31780264
22,2026-05-11 16:08:38.162194,-0.7094926,1.0295722,1.1664705,3.4110715,-5.378974,0.31780264
23,2026-05-11 16:08:38.164802,-0.7094926,1.0295722,1.1664705,3.4110715,-5.378974,0.31780264
24,2026-05-11 16:08:38.167807,-0.7094926,1.0295722,1.1664705,3.4110715,-5.378974,0.31780264
25,2026-05-11 16:08:38.170467,-0.7094926,1.0295722,1.1664705,3.4110715,-5.378974,0.31780264
26,2026-05-11 16:08:38.173019,-0.7094926,1.0295722,1.1664705,3.4110715,-5.378974,0.31780264
27,2026-05-11 16:08:38.175786,-0.7094926,1.0295722,1.1664705,3.4110715,-5.378974,0.31780264
28,2026-05-11 16:08:38.178387,-0.7094926,1.0295722,1.1664705,3.4110715,-5.378974,0.31780264
29,2026-05-11 16:08:38.181004,-1.0067661,1.0347555,1.2042776,3.4110715,-5.378974,0.31780264
30,2026-05-11 16:08:38.183957,-1.0067661,1.0347555,1.2042776,3.4110715,-5.378974,0.31780264
31,2026-05-11 16:08:38.187173,-1.0067661,1.0347555,1.2042776,3.4110715,-5.378974,0.31780264
32,2026-05-11 16:08:38.189915,-1.0067661,1.0347555,1.2042776,3.4110715,-5.378974,0.31780264
33,2026-05-11 16:08:38.192512,-1.0067661,1.0347555,1.2042776,3.4110715,-5.378974,0.31780264
34,2026-05-11 16:08:38.195329,-1.0067661,1.0347555,1.2042776,3.4110715,-5.378974,0.31780264
35,2026-05-11 16:08:38.198012,-1.0067661,1.0347555,1.2042776,3.4110715,-5.378974,0.31780264
36,2026-05-11 16:08:38.200750,-1.0067661,1.0347555,1.2042776,3.4110715,-5.378974,0.31780264
37,2026-05-11 16:08:38.203975,-1.0067661,1.0347555,1.2042776,3.4110715,-5.378974,0.31780264
38,2026-05-11 16:08:38.206795,-1.0067661,1.0347555,1.2042776,3.4110715,-5.378974,0.31780264
39,2026-05-11 16:08:38.209506,-1.0067661,1.0347555,1.2042776,3.4110715,-5.378974,0.31780264
40,2026-05-11 16:08:38.212154,-1.0067661,1.0347555,1.2042776,3.4110715,-5.378974,0.31780264
41,2026-05-11 16:08:38.214721,-1.0067661,1.0347555,1.2042776,3.4110715,-5.378974,0.31780264
42,2026-05-11 16:08:38.217889,-1.0067661,1.0347555,1.2042776,3.4110715,-5.378974,0.31780264
43,2026-05-11 16:08:38.220574,-1.0067661,1.0347555,1.2042776,3.4110715,-5.378974,0.31780264
44,2026-05-11 16:08:38.223142,-1.0067661,1.0347555,1.2042776,3.4110715,-5.378974,0.31780264
45,2026-05-11 16:08:38.225906,-1.0067661,1.0347555,1.2042776,3.4110715,-5.378974,0.31780264
46,2026-05-11 16:08:38.228463,-1.0067661,1.0347555,1.2042776,3.4110715,-5.378974,0.31780264
47,2026-05-11 16:08:38.231026,-1.0067661,1.0347555,1.2042776,3.4110715,-5.378974,0.31780264
48,2026-05-11 16:08:38.233981,-1.0067661,1.0347555,1.2042776,3.4110715,-5.378974,0.31780264
49,2026-05-11 16:08:38.236763,-1.0067661,1.0347555,1.2042776,3.4110715,-5.378974,0.31780264
50,2026-05-11 16:08:38.239432,-1.0067661,1.0347555,1.2042776,3.4110715,-5.378974,0.31780264
51,2026-05-11 16:08:38.241984,-1.0067661,1.0347555,1.2042776,3.4110715,-5.378974,0.31780264
52,2026-05-11 16:08:38.244666,-1.0067661,1.0347555,1.2042776,3.4110715,-5.378974,0.31780264
53,2026-05-11 16:08:38.247205,-1.0067661,1.0347555,1.2042776,3.4110715,-5.378974,0.31780264
54,2026-05-11 16:08:38.250155,-1.0067661,1.0347555,1.2042776,3.4110715,-5.378974,0.31780264
55,2026-05-11 16:08:38.253150,-1.0067661,1.0347555,1.2042776,3.4110715,-5.378974,0.31780264
56,2026-05-11 16:08:38.255871,-1.0067661,1.0347555,1.2042776,3.4110715,-5.378974,0.31780264
57,2026-05-11 16:08:38.258440,-1.0067661,1.0347555,1.2042776,3.4110715,-5.378974,0.31780264
58,2026-05-11 16:08:38.261032,-1.0067661,1.0347555,1.2042776,3.4110715,-5.378974,0.31780264
59,2026-05-11 16:08:38.263687,-1.0067661,1.0347555,1.2042776,3.4110715,-5.378974,0.31780264
60,2026-05-11 16:08:38.266520,-1.0067661,1.0347555,1.2042776,3.4110715,-5.378974,0.31780264
61,2026-05-11 16:08:38.269782,-1.0067661,1.0347555,1.2042776,3.4110715,-5.378974,0.31780264
62,2026-05-11 16:08:38.272625,-1.0067661,1.0347555,1.2042776,3.4110715,-5.378974,0.31780264
63,2026-05-11 16:08:38.275327,-1.0067661,1.0347555,1.2042776,3.4110715,-5.378974,0.31780264
64,2026-05-11 16:08:38.278008,-1.0067661,1.0347555,1.2042776,3.4110715,-5.378974,0.31780264
65,2026-05-11 16:08:38.280795,-1.0067661,1.0347555,1.2042776,3.4110715,-5.378974,0.31780264
66,2026-05-11 16:08:38.284056,-1.0067661,1.0347555,1.2042776,3.9953642,-5.461899,0.7982482
67,2026-05-11 16:08:38.286960,-1.0067661,1.0347555,1.2042776,3.9953642,-5.461899,0.7982482
68,2026-05-11 16:08:38.289570,-1.0067661,1.0347555,1.2042776,3.9953642,-5.461899,0.7982482
69,2026-05-11 16:08:38.292420,-1.0067661,1.0347555,1.2042776,3.9953642,-5.461899,0.7982482
70,2026-05-11 16:08:38.295047,-1.0067661,1.0347555,1.2042776,3.9953642,-5.461899,0.7982482
71,2026-05-11 16:08:38.297902,-1.0067661,1.0347555,1.2042776,3.9953642,-5.461899,0.7982482
72,2026-05-11 16:08:38.301046,-1.0067661,1.0347555,1.2042776,3.9953642,-5.461899,0.7982482
73,2026-05-11 16:08:38.303908,-1.0067661,1.0347555,1.2042776,3.9953642,-5.461899,0.7982482
74,2026-05-11 16:08:38.306515,-1.0067661,1.0347555,1.2042776,3.9953642,-5.461899,0.7982482
75,2026-05-11 16:08:38.309341,-1.0067661,1.0347555,1.2042776,3.9953642,-5.461899,0.7982482
76,2026-05-11 16:08:38.311922,-1.0067661,1.0347555,1.2042776,3.9953642,-5.461899,0.7982482
77,2026-05-11 16:08:38.314711,-1.0067661,1.0347555,1.2042776,3.9953642,-5.461899,0.7982482
78,2026-05-11 16:08:38.317764,-1.0067661,1.0347555,1.2042776,3.9953642,-5.461899,0.7982482
79,2026-05-11 16:08:38.320468,-1.0067661,1.0347555,1.2042776,3.9953642,-5.461899,0.7982482
80,2026-05-11 16:08:38.323002,-1.0067661,1.0347555,1.2042776,3.9953642,-5.461899,0.7982482
81,2026-05-11 16:08:38.325641,-1.0067661,1.0347555,1.2042776,3.9953642,-5.461899,0.7982482
82,2026-05-11 16:08:38.328232,-1.0067661,1.0347555,1.2042776,3.9953642,-5.461899,0.7982482
83,2026-05-11 16:08:38.330798,-1.0067661,1.0347555,1.2042776,3.9953642,-5.461899,0.7982482
84,2026-05-11 16:08:38.333932,-1.0067661,1.0347555,1.2042776,3.9953642,-5.461899,0.7982482
85,2026-05-11 16:08:38.336682,-1.0067661,1.0347555,1.2042776,3.9953642,-5.461899,0.7982482
86,2026-05-11 16:08:38.339273,-1.0067661,1.0347555,1.2042776,3.9953642,-5.461899,0.7982482
87,2026-05-11 16:08:38.341857,-1.0067661,1.0347555,1.2042776,3.9953642,-5.461899,0.7982482
88,2026-05-11 16:08:38.344403,-1.0067661,1.0347555,1.2042776,3.9953642,-5.461899,0.7982482
89,2026-05-11 16:08:38.347116,-1.0067661,1.0347555,1.2042776,3.9953642,-5.461899,0.7982482
90,2026-05-11 16:08:38.349691,-1.0067661,1.0347555,1.2042776,3.9953642,-5.461899,0.7982482
91,2026-05-11 16:08:38.353203,-1.0067661,1.0347555,1.2042776,3.9953642,-5.461899,0.7982482
92,2026-05-11 16:08:38.356126,-1.0067661,1.0347555,1.2042776,3.9953642,-5.461899,0.7982482
93,2026-05-11 16:08:38.359271,-1.0067661,1.0347555,1.2042776,3.9953642,-5.461899,0.7982482
94,2026-05-11 16:08:38.362158,-1.0067661,1.0347555,1.2042776,3.9953642,-5.461899,0.7982482
95,2026-05-11 16:08:38.364996,-1.0067661,1.0347555,1.2042776,3.9953642,-5.461899,0.7982482
96,2026-05-11 16:08:38.368404,-1.0067661,1.0347555,1.2042776,3.9953642,-5.461899,0.7982482
97,2026-05-11 16:08:38.371229,-1.0067661,1.0347555,1.2042776,3.9953642,-5.461899,0.7982482
98,2026-05-11 16:08:38.373897,-1.0067661,1.0347555,1.2042776,3.9953642,-5.461899,0.7982482
99,2026-05-11 16:08:38.376515,-1.3072103,1.0479879,1.1587871,3.9953642,-5.461899,0.7982482
100,2026-05-11 16:08:38.379273,-1.3072103,1.0479879,1.1587871,3.9953642,-5.461899,0.7982482
101,2026-05-11 16:08:38.382004,-1.3072103,1.0479879,1.1587871,3.9953642,-5.461899,0.7982482
102,2026-05-11 16:08:38.385218,-1.3072103,1.0479879,1.1587871,3.9953642,-5.461899,0.7982482
103,2026-05-11 16:08:38.387948,-1.3072103,1.0479879,1.1587871,3.9953642,-5.461899,0.7982482
104,2026-05-11 16:08:38.390656,-1.3072103,1.0479879,1.1587871,3.9953642,-5.461899,0.7982482
105,2026-05-11 16:08:38.393229,-1.3072103,1.0479879,1.1587871,3.9953642,-5.461899,0.7982482
106,2026-05-11 16:08:38.395984,-1.3072103,1.0479879,1.1587871,3.9953642,-5.461899,0.7982482
107,2026-05-11 16:08:38.398552,-1.3072103,1.0479879,1.1587871,3.9953642,-5.461899,0.7982482
108,2026-05-11 16:08:38.401994,-1.3072103,1.0479879,1.1587871,3.9953642,-5.461899,0.7982482
109,2026-05-11 16:08:38.404750,-1.3072103,1.0479879,1.1587871,3.9953642,-5.461899,0.7982482
110,2026-05-11 16:08:38.407408,-1.3072103,1.0479879,1.1587871,3.9953642,-5.461899,0.7982482
111,2026-05-11 16:08:38.410137,-1.3072103,1.0479879,1.1587871,3.9953642,-5.461899,0.7982482
112,2026-05-11 16:08:38.412715,-1.3072103,1.0479879,1.1587871,3.9953642,-5.461899,0.7982482
113,2026-05-11 16:08:38.415530,-1.3072103,1.0479879,1.1587871,3.9953642,-5.461899,0.7982482
114,2026-05-11 16:08:38.418522,-1.3072103,1.0479879,1.1587871,3.9953642,-5.461899,0.7982482
115,2026-05-11 16:08:38.421325,-1.3072103,1.0479879,1.1587871,3.9953642,-5.461899,0.7982482
116,2026-05-11 16:08:38.423937,-1.3072103,1.0479879,1.1587871,3.9953642,-5.461899,0.7982482
117,2026-05-11 16:08:38.426499,-1.3072103,1.0479879,1.1587871,3.9953642,-5.461899,0.7982482
118,2026-05-11 16:08:38.429233,-1.3072103,1.0479879,1.1587871,3.9953642,-5.461899,0.7982482
119,2026-05-11 16:08:38.431807,-1.3072103,1.0479879,1.1587871,3.9953642,-5.461899,0.7982482
120,2026-05-11 16:08:38.434836,-1.3072103,1.0479879,1.1587871,3.9953642,-5.461899,0.7982482
121,2026-05-11 16:08:38.437528,-1.3072103,1.0479879,1.1587871,3.9953642,-5.461899,0.7982482
122,2026-05-11 16:08:38.440149,-1.3072103,1.0479879,1.1587871,4.4290786,-5.4426565,1.3800973
123,2026-05-11 16:08:38.442808,-1.3072103,1.0479879,1.1587871,4.4290786,-5.4426565,1.3800973
124,2026-05-11 16:08:38.445369,-1.3072103,1.0479879,1.1587871,4.4290786,-5.4426565,1.3800973
125,2026-05-11 16:08:38.448125,-1.3072103,1.0479879,1.1587871,4.4290786,-5.4426565,1.3800973
126,2026-05-11 16:08:38.451154,-1.3072103,1.0479879,1.1587871,4.4290786,-5.4426565,1.3800973
127,2026-05-11 16:08:38.453936,-1.3072103,1.0479879,1.1587871,4.4290786,-5.4426565,1.3800973
128,2026-05-11 16:08:38.456611,-1.3072103,1.0479879,1.1587871,4.4290786,-5.4426565,1.3800973
129,2026-05-11 16:08:38.459403,-1.3334315,1.1420788,1.0717698,4.4290786,-5.4426565,1.3800973
130,2026-05-11 16:08:38.462173,-1.3334315,1.1420788,1.0717698,4.4290786,-5.4426565,1.3800973
131,2026-05-11 16:08:38.464909,-1.3334315,1.1420788,1.0717698,4.4290786,-5.4426565,1.3800973
132,2026-05-11 16:08:38.468161,-1.3334315,1.1420788,1.0717698,4.4290786,-5.4426565,1.3800973
133,2026-05-11 16:08:38.470934,-1.3334315,1.1420788,1.0717698,4.4290786,-5.4426565,1.3800973
134,2026-05-11 16:08:38.473602,-1.3334315,1.1420788,1.0717698,4.4290786,-5.4426565,1.3800973
135,2026-05-11 16:08:38.476343,-1.3334315,1.1420788,1.0717698,4.4290786,-5.4426565,1.3800973
136,2026-05-11 16:08:38.478926,-1.3334315,1.1420788,1.0717698,4.4290786,-5.4426565,1.3800973
137,2026-05-11 16:08:38.481741,-1.3334315,1.1420788,1.0717698,4.4290786,-5.4426565,1.3800973
138,2026-05-11 16:08:38.485181,-1.3334315,1.1420788,1.0717698,4.4290786,-5.4426565,1.3800973
139,2026-05-11 16:08:38.487915,-1.3334315,1.1420788,1.0717698,4.4290786,-5.4426565,1.3800973
140,2026-05-11 16:08:38.490632,-1.2450726,1.2265959,1.0260965,4.4290786,-5.4426565,1.3800973
141,2026-05-11 16:08:38.493221,-1.2450726,1.2265959,1.0260965,4.4290786,-5.4426565,1.3800973
142,2026-05-11 16:08:38.495765,-1.2450726,1.2265959,1.0260965,4.4290786,-5.4426565,1.3800973
143,2026-05-11 16:08:38.498527,-1.2450726,1.2265959,1.0260965,4.4290786,-5.4426565,1.3800973
144,2026-05-11 16:08:38.501433,-1.2450726,1.2265959,1.0260965,4.4290786,-5.4426565,1.3800973
145,2026-05-11 16:08:38.504187,-1.0326211,1.3920325,0.9124923,4.5297184,-4.499175,1.8556559
146,2026-05-11 16:08:38.506893,-1.0326211,1.3920325,0.9124923,4.5297184,-4.499175,1.8556559
147,2026-05-11 16:08:38.509493,-0.94023776,1.4999655,0.81529146,4.5297184,-4.499175,1.8556559
148,2026-05-11 16:08:38.512288,-0.94023776,1.4999655,0.81529146,4.5297184,-4.499175,1.8556559
149,2026-05-11 16:08:38.514833,-0.94023776,1.4999655,0.81529146,4.5297184,-4.499175,1.8556559
150,2026-05-11 16:08:38.517978,-0.94023776,1.4999655,0.81529146,4.5297184,-4.499175,1.8556559
151,2026-05-11 16:08:38.520700,-0.94023776,1.4999655,0.81529146,4.5297184,-4.499175,1.8556559
152,2026-05-11 16:08:38.523321,-0.94023776,1.4999655,0.81529146,4.5297184,-4.499175,1.8556559
153,2026-05-11 16:08:38.526147,-0.94023776,1.4999655,0.81529146,4.5297184,-4.499175,1.8556559
154,2026-05-11 16:08:38.528748,-0.94023776,1.4999655,0.81529146,4.5297184,-4.499175,1.8556559
155,2026-05-11 16:08:38.531438,-0.94023776,1.4999655,0.81529146,4.5297184,-4.499175,1.8556559
156,2026-05-11 16:08:38.534388,-0.94023776,1.4999655,0.81529146,4.5297184,-4.499175,1.8556559
157,2026-05-11 16:08:38.537222,-0.94023776,1.4999655,0.81529146,4.5297184,-4.499175,1.8556559
158,2026-05-11 16:08:38.539843,-0.94023776,1.4999655,0.81529146,4.5297184,-4.499175,1.8556559
159,2026-05-11 16:08:38.542407,-0.94023776,1.4999655,0.81529146,4.5297184,-4.499175,1.8556559
160,2026-05-11 16:08:38.545256,-0.94023776,1.4999655,0.81529146,4.5297184,-4.499175,1.8556559
161,2026-05-11 16:08:38.547826,-0.94023776,1.4999655,0.81529146,4.5297184,-4.499175,1.8556559
162,2026-05-11 16:08:38.550910,-0.94023776,1.4999655,0.81529146,4.5297184,-4.499175,1.8556559
163,2026-05-11 16:08:38.553806,-0.94023776,1.4999655,0.81529146,4.328133,-3.7299433,1.7464638
164,2026-05-11 16:08:38.556536,-0.94023776,1.4999655,0.81529146,4.328133,-3.7299433,1.7464638
165,2026-05-11 16:08:38.559122,-0.94023776,1.4999655,0.81529146,4.328133,-3.7299433,1.7464638
166,2026-05-11 16:08:38.561993,-0.94023776,1.4999655,0.81529146,4.328133,-3.7299433,1.7464638
167,2026-05-11 16:08:38.564703,-0.94023776,1.4999655,0.81529146,4.328133,-3.7299433,1.7464638
168,2026-05-11 16:08:38.567762,-0.94023776,1.4999655,0.81529146,4.328133,-3.7299433,1.7464638
169,2026-05-11 16:08:38.570728,-0.91121167,1.5238694,0.71717596,4.328133,-3.7299433,1.7464638
170,2026-05-11 16:08:38.573413,-0.91121167,1.5238694,0.71717596,4.328133,-3.7299433,1.7464638
171,2026-05-11 16:08:38.575969,-0.91121167,1.5238694,0.71717596,4.328133,-3.7299433,1.7464638
172,2026-05-11 16:08:38.578664,-0.91121167,1.5238694,0.71717596,4.328133,-3.7299433,1.7464638
173,2026-05-11 16:08:38.581253,-0.91121167,1.5238694,0.71717596,4.328133,-3.7299433,1.7464638
174,2026-05-11 16:08:38.584312,-0.91121167,1.5238694,0.71717596,4.328133,-3.7299433,1.7464638
175,2026-05-11 16:08:38.587098,-0.91121167,1.5238694,0.71717596,4.328133,-3.7299433,1.7464638
176,2026-05-11 16:08:38.589734,-0.91121167,1.5238694,0.71717596,4.0801215,-3.054021,1.4946345
177,2026-05-11 16:08:38.592272,-0.91121167,1.5238694,0.71717596,4.0801215,-3.054021,1.4946345
178,2026-05-11 16:08:38.595189,-0.91121167,1.5238694,0.71717596,4.0801215,-3.054021,1.4946345
179,2026-05-11 16:08:38.597784,-0.91121167,1.5238694,0.71717596,4.0801215,-3.054021,1.4946345
180,2026-05-11 16:08:38.601066,-0.91121167,1.5238694,0.71717596,4.0801215,-3.054021,1.4946345
181,2026-05-11 16:08:38.603912,-0.91121167,1.5238694,0.71717596,4.0801215,-3.054021,1.4946345
182,2026-05-11 16:08:38.606689,-0.91121167,1.5238694,0.71717596,4.0801215,-3.054021,1.4946345
183,2026-05-11 16:08:38.609396,-0.91121167,1.5238694,0.71717596,4.0801215,-3.054021,1.4946345
184,2026-05-11 16:08:38.611988,-0.91121167,1.5238694,0.71717596,4.0801215,-3.054021,1.4946345
185,2026-05-11 16:08:38.614582,-0.91121167,1.5238694,0.71717596,4.0801215,-3.054021,1.4946345
186,2026-05-11 16:08:38.617622,-0.91121167,1.5238694,0.71717596,4.0801215,-3.054021,1.4946345
187,2026-05-11 16:08:38.620379,-0.91121167,1.5238694,0.71717596,4.0801215,-3.054021,1.4946345
188,2026-05-11 16:08:38.622932,-0.91121167,1.5238694,0.71717596,4.0801215,-3.054021,1.4946345
189,2026-05-11 16:08:38.625679,-0.91121167,1.5238694,0.71717596,4.0801215,-3.054021,1.4946345
190,2026-05-11 16:08:38.628305,-0.91121167,1.5238694,0.71717596,4.0801215,-3.054021,1.4946345
191,2026-05-11 16:08:38.630882,-0.91121167,1.5238694,0.71717596,4.0801215,-3.054021,1.4946345
192,2026-05-11 16:08:38.633918,-0.91121167,1.5238694,0.71717596,4.0801215,-3.054021,1.4946345
193,2026-05-11 16:08:38.636754,-0.91121167,1.5238694,0.71717596,4.0801215,-3.054021,1.4946345
194,2026-05-11 16:08:38.639457,-0.91121167,1.5238694,0.71717596,4.0801215,-3.054021,1.4946345
195,2026-05-11 16:08:38.642000,-0.91121167,1.5238694,0.71717596,4.0801215,-3.054021,1.4946345
196,2026-05-11 16:08:38.644675,-0.91121167,1.5238694,0.71717596,4.0801215,-3.054021,1.4946345
197,2026-05-11 16:08:38.647244,-0.91121167,1.5238694,0.71717596,4.0801215,-3.054021,1.4946345
198,2026-05-11 16:08:38.650374,-0.91121167,1.5238694,0.71717596,3.907094,-2.5822802,1.3151928
199,2026-05-11 16:08:38.653468,-0.91121167,1.5238694,0.71717596,3.907094,-2.5822802,1.3151928
200,2026-05-11 16:08:38.656116,-0.91121167,1.5238694,0.71717596,3.907094,-2.5822802,1.3151928
201,2026-05-11 16:08:38.658690,-0.91121167,1.5238694,0.71717596,3.907094,-2.5822802,1.3151928
202,2026-05-11 16:08:38.661393,-0.91121167,1.5238694,0.71717596,3.907094,-2.5822802,1.3151928
203,2026-05-11 16:08:38.663955,-0.91121167,1.5238694,0.71717596,3.907094,-2.5822802,1.3151928
204,2026-05-11 16:08:38.666876,-0.88925916,1.4935628,0.71717596,3.907094,-2.5822802,1.3151928
205,2026-05-11 16:08:38.669900,-0.88925916,1.4935628,0.71717596,3.907094,-2.5822802,1.3151928
206,2026-05-11 16:08:38.672494,-0.88925916,1.4935628,0.71717596,3.907094,-2.5822802,1.3151928
207,2026-05-11 16:08:38.675292,-0.88925916,1.4935628,0.71717596,3.907094,-2.5822802,1.3151928
208,2026-05-11 16:08:38.677915,-0.88925916,1.4935628,0.71717596,3.907094,-2.5822802,1.3151928
209,2026-05-11 16:08:38.680602,-0.88925916,1.4935628,0.71717596,3.907094,-2.5822802,1.3151928
210,2026-05-11 16:08:38.683696,-0.88925916,1.4935628,0.71717596,3.907094,-2.5822802,1.3151928
211,2026-05-11 16:08:38.686745,-0.88925916,1.4935628,0.71717596,3.907094,-2.5822802,1.3151928
212,2026-05-11 16:08:38.689340,-0.88925916,1.4935628,0.71717596,3.907094,-2.5822802,1.3151928
213,2026-05-11 16:08:38.692154,-0.88925916,1.4935628,0.71717596,3.907094,-2.5822802,1.3151928
214,2026-05-11 16:08:38.694725,-0.88925916,1.4935628,0.71717596,3.907094,-2.5822802,1.3151928
215,2026-05-11 16:08:38.697476,-0.88925916,1.4935628,0.71717596,3.907094,-2.5822802,1.3151928
216,2026-05-11 16:08:38.700602,-0.88925916,1.4935628,0.71717596,3.907094,-2.5822802,1.3151928
217,2026-05-11 16:08:38.703382,-0.88925916,1.4935628,0.71717596,3.907094,-2.5822802,1.3151928
218,2026-05-11 16:08:38.705968,-0.88925916,1.4935628,0.71717596,3.907094,-2.5822802,1.3151928
219,2026-05-11 16:08:38.708515,-0.88925916,1.4935628,0.71717596,3.907094,-2.5822802,1.3151928
220,2026-05-11 16:08:38.711098,-0.88925916,1.4935628,0.71717596,3.907094,-2.5822802,1.3151928
221,2026-05-11 16:08:38.713627,-0.88925916,1.4935628,0.71717596,3.907094,-2.5822802,1.3151928
222,2026-05-11 16:08:38.716389,-0.7469338,1.3716655,0.81864536,3.7468946,-2.1351268,1.1808025
223,2026-05-11 16:08:38.719454,-0.7469338,1.3716655,0.81864536,3.7468946,-2.1351268,1.1808025
224,2026-05-11 16:08:38.722047,-0.7469338,1.3716655,0.81864536,3.7468946,-2.1351268,1.1808025
225,2026-05-11 16:08:38.724737,-0.7469338,1.3716655,0.81864536,3.7468946,-2.1351268,1.1808025
226,2026-05-11 16:08:38.727325,-0.7469338,1.3716655,0.81864536,3.7468946,-2.1351268,1.1808025
227,2026-05-11 16:08:38.730155,-0.7469338,1.3716655,0.81864536,3.7468946,-2.1351268,1.1808025
228,2026-05-11 16:08:38.732847,-0.7469338,1.3716655,0.81864536,3.7468946,-2.1351268,1.1808025
229,2026-05-11 16:08:38.736003,-0.7469338,1.3716655,0.81864536,3.7468946,-2.1351268,1.1808025
230,2026-05-11 16:08:38.738677,-0.7469338,1.3716655,0.81864536,3.7468946,-2.1351268,1.1808025
231,2026-05-11 16:08:38.741265,-0.7469338,1.3716655,0.81864536,3.7468946,-2.1351268,1.1808025
232,2026-05-11 16:08:38.743869,-0.7469338,1.3716655,0.81864536,3.7468946,-2.1351268,1.1808025
233,2026-05-11 16:08:38.746661,-0.7469338,1.3716655,0.81864536,3.684281,-1.4941764,0.9992228
234,2026-05-11 16:08:38.749434,-0.7469338,1.3716655,0.81864536,3.684281,-1.4941764,0.9992228
235,2026-05-11 16:08:38.752657,-0.7469338,1.3716655,0.81864536,3.684281,-1.4941764,0.9992228
236,2026-05-11 16:08:38.755256,-0.7469338,1.3716655,0.81864536,3.684281,-1.4941764,0.9992228
237,2026-05-11 16:08:38.758039,-0.7469338,1.3716655,0.81864536,3.684281,-1.4941764,0.9992228
238,2026-05-11 16:08:38.760670,-0.7469338,1.3716655,0.81864536,3.684281,-1.4941764,0.9992228
239,2026-05-11 16:08:38.763437,-0.7469338,1.3716655,0.81864536,3.684281,-1.4941764,0.9992228
240,2026-05-11 16:08:38.766013,-0.7469338,1.3716655,0.81864536,3.684281,-1.4941764,0.9992228
241,2026-05-11 16:08:38.768971,-0.7469338,1.3716655,0.81864536,3.684281,-1.4941764,0.9992228
242,2026-05-11 16:08:38.771710,-0.7469338,1.3716655,0.81864536,3.684281,-1.4941764,0.9992228
243,2026-05-11 16:08:38.774263,-0.7469338,1.3716655,0.81864536,3.684281,-1.4941764,0.9992228
244,2026-05-11 16:08:38.776831,-0.7469338,1.3716655,0.81864536,3.684281,-1.4941764,0.9992228
245,2026-05-11 16:08:38.779550,-0.7469338,1.3716655,0.81864536,3.684281,-1.4941764,0.9992228
246,2026-05-11 16:08:38.782108,-0.7469338,1.3716655,0.81864536,3.684281,-1.4941764,0.9992228
247,2026-05-11 16:08:38.785057,-0.7469338,1.3716655,0.81864536,3.684281,-1.4941764,0.9992228
248,2026-05-11 16:08:38.787801,-0.7469338,1.3716655,0.81864536,3.684281,-1.4941764,0.9992228
249,2026-05-11 16:08:38.802494,0.27946752,0.35691106,0.3146525,1.8075503,-0.73426,0.4109596
250,2026-05-11 16:08:38.815828,0.27946752,0.35691106,0.3146525,5.4982452,-3.3577735,0.39080104
251,2026-05-11 16:08:38.819397,0.27946752,0.35691106,0.3146525,6.3418503,-3.760181,0.50228393
252,2026-05-11 16:08:38.827491,0.27946752,0.35691106,0.3146525,6.3418503,-3.760181,0.50228393
253,2026-05-11 16:08:38.830305,0.27946752,0.35691106,0.3146525,6.3418503,-3.760181,0.50228393
254,2026-05-11 16:08:38.833026,0.27946752,0.35691106,0.3146525,6.3418503,-3.760181,0.50228393
255,2026-05-11 16:08:38.836106,0.27946752,0.35691106,0.3146525,6.3418503,-3.760181,0.50228393
256,2026-05-11 16:08:38.838744,0.27946752,0.35691106,0.3146525,6.3418503,-3.760181,0.50228393
257,2026-05-11 16:08:38.841563,0.27946752,0.35691106,0.3146525,6.3418503,-3.760181,0.50228393
258,2026-05-11 16:08:38.844275,0.27946752,0.35691106,0.3146525,6.3418503,-3.760181,0.50228393
259,2026-05-11 16:08:38.846982,0.27946752,0.35691106,0.3146525,6.3418503,-3.760181,0.50228393
260,2026-05-11 16:08:38.849587,0.27946752,0.35691106,0.3146525,6.3418503,-3.760181,0.50228393
261,2026-05-11 16:08:38.852884,0.27946752,0.35691106,0.3146525,6.3418503,-3.760181,0.50228393
262,2026-05-11 16:08:38.855541,0.27946752,0.35691106,0.3146525,6.3418503,-3.760181,0.50228393
263,2026-05-11 16:08:38.858146,0.27946752,0.35691106,0.3146525,6.3418503,-3.760181,0.50228393
264,2026-05-11 16:08:38.860712,0.27946752,0.35691106,0.3146525,6.3418503,-3.760181,0.50228393
265,2026-05-11 16:08:38.863316,0.27946752,0.35691106,0.3146525,6.3418503,-3.760181,0.50228393
266,2026-05-11 16:08:38.865896,0.27946752,0.35691106,0.3146525,6.3418503,-3.760181,0.50228393
267,2026-05-11 16:08:38.869056,0.27946752,0.35691106,0.3146525,6.3418503,-3.760181,0.50228393
268,2026-05-11 16:08:38.871764,0.27946752,0.35691106,0.3146525,6.3418503,-3.760181,0.50228393
269,2026-05-11 16:08:38.874316,0.27946752,0.35691106,0.3146525,6.3418503,-3.760181,0.50228393
270,2026-05-11 16:08:38.876927,0.22251299,0.2936757,-0.15507002,6.3418503,-3.760181,0.50228393
271,2026-05-11 16:08:38.879716,0.22251299,0.2936757,-0.15507002,6.3418503,-3.760181,0.50228393
272,2026-05-11 16:08:38.882471,0.22251299,0.2936757,-0.15507002,6.3418503,-3.760181,0.50228393
273,2026-05-11 16:08:38.885505,0.22251299,0.2936757,-0.15507002,6.3418503,-3.760181,0.50228393
274,2026-05-11 16:08:38.888116,0.22251299,0.2936757,-0.15507002,6.3418503,-3.760181,0.50228393
275,2026-05-11 16:08:38.890753,0.22251299,0.2936757,-0.15507002,6.3418503,-3.760181,0.50228393
276,2026-05-11 16:08:38.893304,0.22251299,0.2936757,-0.15507002,6.3418503,-3.760181,0.50228393
277,2026-05-11 16:08:38.895961,0.22251299,0.2936757,-0.15507002,6.3418503,-3.760181,0.50228393
278,2026-05-11 16:08:38.898451,0.22251299,0.2936757,-0.15507002,6.3418503,-3.760181,0.50228393
279,2026-05-11 16:08:38.901660,0.22251299,0.2936757,-0.15507002,6.3418503,-3.760181,0.50228393
280,2026-05-11 16:08:38.904288,0.22251299,0.2936757,-0.15507002,6.3418503,-3.760181,0.50228393
281,2026-05-11 16:08:38.906952,0.22251299,0.2936757,-0.15507002,6.3418503,-3.760181,0.50228393
282,2026-05-11 16:08:38.909788,0.22251299,0.2936757,-0.15507002,6.3418503,-3.760181,0.50228393
283,2026-05-11 16:08:38.912356,0.22251299,0.2936757,-0.15507002,6.3418503,-3.760181,0.50228393
284,2026-05-11 16:08:38.915125,0.22251299,0.2936757,-0.15507002,6.3418503,-3.760181,0.50228393
285,2026-05-11 16:08:38.918414,0.22251299,0.2936757,-0.15507002,6.3418503,-3.760181,0.50228393
286,2026-05-11 16:08:38.921281,0.22251299,0.2936757,-0.15507002,6.3418503,-3.760181,0.50228393
287,2026-05-11 16:08:38.923834,0.22251299,0.2936757,-0.15507002,6.3418503,-3.760181,0.50228393
288,2026-05-11 16:08:38.926390,0.22251299,0.2936757,-0.15507002,6.3418503,-3.760181,0.50228393
289,2026-05-11 16:08:38.929048,0.22251299,0.2936757,-0.15507002,6.3418503,-3.760181,0.50228393
290,2026-05-11 16:08:38.931576,0.22251299,0.2936757,-0.15507002,6.3418503,-3.760181,0.50228393
291,2026-05-11 16:08:38.934619,0.22251299,0.2936757,-0.15507002,6.3418503,-3.760181,0.50228393
292,2026-05-11 16:08:38.937369,0.22251299,0.2936757,-0.15507002,6.3418503,-3.760181,0.50228393
293,2026-05-11 16:08:38.939998,0.19946286,0.29459035,-0.7442508,6.3418503,-3.760181,0.50228393
294,2026-05-11 16:08:38.942905,0.19946286,0.29459035,-0.7442508,6.3418503,-3.760181,0.50228393
295,2026-05-11 16:08:38.945675,0.19946286,0.29459035,-0.7442508,6.3418503,-3.760181,0.50228393
296,2026-05-11 16:08:38.948299,0.19946286,0.29459035,-0.7442508,6.3418503,-3.760181,0.50228393
297,2026-05-11 16:08:38.951409,0.19946286,0.29459035,-0.7442508,6.3418503,-3.760181,0.50228393
298,2026-05-11 16:08:38.954139,0.19946286,0.29459035,-0.7442508,6.3418503,-3.760181,0.50228393
299,2026-05-11 16:08:38.956705,0.19946286,0.29459035,-0.7442508,6.3418503,-3.760181,0.50228393
300,2026-05-11 16:08:38.959579,0.19946286,0.29459035,-0.7442508,6.3418503,-3.760181,0.50228393
301,2026-05-11 16:08:38.962195,0.19946286,0.29459035,-0.7442508,6.3418503,-3.760181,0.50228393
302,2026-05-11 16:08:38.964781,0.19946286,0.29459035,-0.7442508,6.3418503,-3.760181,0.50228393
303,2026-05-11 16:08:38.967975,0.19946286,0.29459035,-0.7442508,6.3418503,-3.760181,0.50228393
304,2026-05-11 16:08:38.970786,0.19946286,0.29459035,-0.7442508,6.3418503,-3.760181,0.50228393
305,2026-05-11 16:08:38.973591,0.19946286,0.29459035,-0.7442508,6.11247,-3.5569155,0.71975195
306,2026-05-11 16:08:38.976312,0.19946286,0.29459035,-0.7442508,6.11247,-3.5569155,0.71975195
307,2026-05-11 16:08:38.978900,0.19946286,0.29459035,-0.7442508,6.11247,-3.5569155,0.71975195
308,2026-05-11 16:08:38.981553,0.19946286,0.29459035,-0.7442508,6.11247,-3.5569155,0.71975195
309,2026-05-11 16:08:38.984590,0.19946286,0.29459035,-0.7442508,6.11247,-3.5569155,0.71975195
310,2026-05-11 16:08:38.987333,0.19946286,0.29459035,-0.7442508,6.11247,-3.5569155,0.71975195
311,2026-05-11 16:08:38.989929,0.19946286,0.29459035,-0.7442508,6.11247,-3.5569155,0.71975195
312,2026-05-11 16:08:38.992777,0.19946286,0.29459035,-0.7442508,6.11247,-3.5569155,0.71975195
313,2026-05-11 16:08:38.995453,0.19946286,0.29459035,-0.7442508,6.11247,-3.5569155,0.71975195
314,2026-05-11 16:08:38.998076,0.19946286,0.29459035,-0.7442508,6.11247,-3.5569155,0.71975195
315,2026-05-11 16:08:39.000986,0.19946286,0.29459035,-0.7442508,6.11247,-3.5569155,0.71975195
316,2026-05-11 16:08:39.003753,0.19946286,0.29459035,-0.7442508,6.11247,-3.5569155,0.71975195
317,2026-05-11 16:08:39.006308,0.19946286,0.29459035,-0.7442508,6.11247,-3.5569155,0.71975195
318,2026-05-11 16:08:39.008886,0.19946286,0.29459035,-0.7442508,6.11247,-3.5569155,0.71975195
319,2026-05-11 16:08:39.011664,0.19946286,0.29459035,-0.7442508,6.11247,-3.5569155,0.71975195
320,2026-05-11 16:08:39.014268,0.19946286,0.29459035,-0.7442508,6.11247,-3.5569155,0.71975195
321,2026-05-11 16:08:39.017331,0.19946286,0.29459035,-0.7442508,6.11247,-3.5569155,0.71975195
322,2026-05-11 16:08:39.020088,0.19946286,0.29459035,-0.7442508,6.11247,-3.5569155,0.71975195
323,2026-05-11 16:08:39.022867,0.19946286,0.29459035,-0.7442508,6.11247,-3.5569155,0.71975195
324,2026-05-11 16:08:39.025458,0.19946286,0.29459035,-0.7442508,6.11247,-3.5569155,0.71975195
325,2026-05-11 16:08:39.028170,0.19946286,0.29459035,-0.7442508,6.11247,-3.5569155,0.71975195
326,2026-05-11 16:08:39.030742,0.19946286,0.29459035,-0.7442508,6.11247,-3.5569155,0.71975195
327,2026-05-11 16:08:39.033715,0.19946286,0.29459035,-0.7442508,6.11247,-3.5569155,0.71975195
328,2026-05-11 16:08:39.036386,0.19946286,0.29459035,-0.7442508,6.11247,-3.5569155,0.71975195
329,2026-05-11 16:08:39.038978,0.19946286,0.29459035,-0.7442508,6.11247,-3.5569155,0.71975195
330,2026-05-11 16:08:39.041700,0.19946286,0.29459035,-0.7442508,6.11247,-3.5569155,0.71975195
331,2026-05-11 16:08:39.044316,0.19946286,0.29459035,-0.7442508,6.11247,-3.5569155,0.71975195
332,2026-05-11 16:08:39.047000,0.19946286,0.29459035,-0.7442508,6.11247,-3.5569155,0.71975195
333,2026-05-11 16:08:39.049644,0.19946286,0.29459035,-0.7442508,6.11247,-3.5569155,0.71975195
334,2026-05-11 16:08:39.053168,0.19946286,0.29459035,-0.7442508,6.11247,-3.5569155,0.71975195
335,2026-05-11 16:08:39.056161,0.19946286,0.29459035,-0.7442508,6.11247,-3.5569155,0.71975195
336,2026-05-11 16:08:39.058863,0.19946286,0.29459035,-0.7442508,6.11247,-3.5569155,0.71975195
337,2026-05-11 16:08:39.061623,0.19946286,0.29459035,-0.7442508,6.11247,-3.5569155,0.71975195
338,2026-05-11 16:08:39.064367,0.19946286,0.29459035,-0.7442508,6.11247,-3.5569155,0.71975195
339,2026-05-11 16:08:39.067261,0.19946286,0.29459035,-0.7442508,6.11247,-3.5569155,0.71975195
340,2026-05-11 16:08:39.070857,0.19946286,0.29459035,-0.7442508,6.11247,-3.5569155,0.71975195
341,2026-05-11 16:08:39.073756,0.19946286,0.29459035,-0.7442508,6.11247,-3.5569155,0.71975195
342,2026-05-11 16:08:39.076369,0.19946286,0.29459035,-0.7442508,6.11247,-3.5569155,0.71975195
343,2026-05-11 16:08:39.078969,0.19946286,0.29459035,-0.7442508,6.11247,-3.5569155,0.71975195
344,2026-05-11 16:08:39.081644,0.19946286,0.29459035,-0.7442508,6.11247,-3.5569155,0.71975195
345,2026-05-11 16:08:39.084531,0.19946286,0.29459035,-0.7442508,6.11247,-3.5569155,0.71975195
346,2026-05-11 16:08:39.087846,0.19946286,0.29459035,-0.7442508,6.11247,-3.5569155,0.71975195
347,2026-05-11 16:08:39.090617,0.19946286,0.29459035,-0.7442508,6.11247,-3.5569155,0.71975195
348,2026-05-11 16:08:39.093321,0.19946286,0.29459035,-0.7442508,6.11247,-3.5569155,0.71975195
349,2026-05-11 16:08:39.095918,0.19946286,0.29459035,-0.7442508,6.11247,-3.5569155,0.71975195
350,2026-05-11 16:08:39.098749,0.26160064,0.34026375,-1.2487923,6.11247,-3.5569155,0.71975195
351,2026-05-11 16:08:39.101496,0.26160064,0.34026375,-1.2487923,6.11247,-3.5569155,0.71975195
352,2026-05-11 16:08:39.104828,0.26160064,0.34026375,-1.2487923,6.11247,-3.5569155,0.71975195
353,2026-05-11 16:08:39.107501,0.26160064,0.34026375,-1.2487923,6.11247,-3.5569155,0.71975195
354,2026-05-11 16:08:39.110087,0.26160064,0.34026375,-1.2487923,6.11247,-3.5569155,0.71975195
355,2026-05-11 16:08:39.112630,0.26160064,0.34026375,-1.2487923,6.11247,-3.5569155,0.71975195
356,2026-05-11 16:08:39.115254,0.26160064,0.34026375,-1.2487923,6.11247,-3.5569155,0.71975195
357,2026-05-11 16:08:39.118331,0.26160064,0.34026375,-1.2487923,6.11247,-3.5569155,0.71975195
358,2026-05-11 16:08:39.121265,0.26160064,0.34026375,-1.2487923,6.11247,-3.5569155,0.71975195
359,2026-05-11 16:08:39.123959,0.26160064,0.34026375,-1.2487923,6.11247,-3.5569155,0.71975195
360,2026-05-11 16:08:39.126538,0.26160064,0.34026375,-1.2487923,6.11247,-3.5569155,0.71975195
361,2026-05-11 16:08:39.129287,0.26160064,0.34026375,-1.2487923,6.11247,-3.5569155,0.71975195
362,2026-05-11 16:08:39.131864,0.26160064,0.34026375,-1.2487923,6.11247,-3.5569155,0.71975195
363,2026-05-11 16:08:39.134796,0.26160064,0.34026375,-1.2487923,6.11247,-3.5569155,0.71975195
364,2026-05-11 16:08:39.137519,0.26160064,0.34026375,-1.2487923,6.11247,-3.5569155,0.71975195
365,2026-05-11 16:08:39.140106,0.26160064,0.34026375,-1.2487923,6.11247,-3.5569155,0.71975195
366,2026-05-11 16:08:39.142692,0.26160064,0.34026375,-1.2487923,6.11247,-3.5569155,0.71975195
367,2026-05-11 16:08:39.145385,0.26160064,0.34026375,-1.2487923,6.11247,-3.5569155,0.71975195
368,2026-05-11 16:08:39.147955,0.26160064,0.34026375,-1.2487923,6.11247,-3.5569155,0.71975195
369,2026-05-11 16:08:39.150910,0.26160064,0.34026375,-1.2487923,6.11247,-3.5569155,0.71975195
370,2026-05-11 16:08:39.153752,0.26160064,0.34026375,-1.2487923,6.11247,-3.5569155,0.71975195
371,2026-05-11 16:08:39.156346,0.26160064,0.34026375,-1.2487923,6.11247,-3.5569155,0.71975195
372,2026-05-11 16:08:39.158937,0.26160064,0.34026375,-1.2487923,6.11247,-3.5569155,0.71975195
373,2026-05-11 16:08:39.161768,0.26160064,0.34026375,-1.2487923,6.11247,-3.5569155,0.71975195
374,2026-05-11 16:08:39.164411,0.26160064,0.34026375,-1.2487923,6.11247,-3.5569155,0.71975195
375,2026-05-11 16:08:39.167677,0.26160064,0.34026375,-1.2487923,6.11247,-3.5569155,0.71975195
376,2026-05-11 16:08:39.170597,0.26160064,0.34026375,-1.2487923,6.11247,-3.5569155,0.71975195
377,2026-05-11 16:08:39.173336,0.26160064,0.34026375,-1.2487923,6.11247,-3.5569155,0.71975195
378,2026-05-11 16:08:39.175958,0.26160064,0.34026375,-1.2487923,6.11247,-3.5569155,0.71975195
379,2026-05-11 16:08:39.178827,0.26160064,0.34026375,-1.2487923,6.11247,-3.5569155,0.71975195
380,2026-05-11 16:08:39.181526,0.26160064,0.34026375,-1.2487923,6.11247,-3.5569155,0.71975195
381,2026-05-11 16:08:39.184592,0.26160064,0.34026375,-1.2487923,6.11247,-3.5569155,0.71975195
382,2026-05-11 16:08:39.187409,0.26160064,0.34026375,-1.2487923,6.11247,-3.5569155,0.71975195
383,2026-05-11 16:08:39.190133,0.26160064,0.34026375,-1.2487923,6.11247,-3.5569155,0.71975195
384,2026-05-11 16:08:39.192699,0.26160064,0.34026375,-1.2487923,6.11247,-3.5569155,0.71975195
385,2026-05-11 16:08:39.195515,0.26160064,0.34026375,-1.2487923,6.11247,-3.5569155,0.71975195
386,2026-05-11 16:08:39.198142,0.26160064,0.34026375,-1.2487923,6.11247,-3.5569155,0.71975195
387,2026-05-11 16:08:39.201268,0.26160064,0.34026375,-1.2487923,6.11247,-3.5569155,0.71975195
388,2026-05-11 16:08:39.204080,0.26160064,0.34026375,-1.2487923,6.11247,-3.5569155,0.71975195
389,2026-05-11 16:08:39.206673,0.26160064,0.34026375,-1.2487923,6.11247,-3.5569155,0.71975195
390,2026-05-11 16:08:39.209273,0.26160064,0.34026375,-1.2487923,6.11247,-3.5569155,0.71975195
391,2026-05-11 16:08:39.211863,0.26160064,0.34026375,-1.2487923,6.11247,-3.5569155,0.71975195
392,2026-05-11 16:08:39.214410,0.26160064,0.34026375,-1.2487923,6.11247,-3.5569155,0.71975195
393,2026-05-11 16:08:39.217542,0.26160064,0.34026375,-1.2487923,6.11247,-3.5569155,0.71975195
394,2026-05-11 16:08:39.220222,0.26160064,0.34026375,-1.2487923,6.11247,-3.5569155,0.71975195
395,2026-05-11 16:08:39.222795,0.26160064,0.34026375,-1.2487923,6.11247,-3.5569155,0.71975195
396,2026-05-11 16:08:39.225397,0.26160064,0.34026375,-1.2487923,6.11247,-3.5569155,0.71975195
397,2026-05-11 16:08:39.227974,0.26160064,0.34026375,-1.2487923,6.11247,-3.5569155,0.71975195
398,2026-05-11 16:08:39.230549,0.26160064,0.34026375,-1.2487923,6.11247,-3.5569155,0.71975195
399,2026-05-11 16:08:39.233623,0.26160064,0.34026375,-1.2487923,6.11247,-3.5569155,0.71975195
400,2026-05-11 16:08:39.236319,0.26160064,0.34026375,-1.2487923,6.11247,-3.5569155,0.71975195
401,2026-05-11 16:08:39.239129,0.26160064,0.34026375,-1.2487923,6.11247,-3.5569155,0.71975195
402,2026-05-11 16:08:39.241745,0.26160064,0.34026375,-1.2487923,6.11247,-3.5569155,0.71975195
403,2026-05-11 16:08:39.244416,0.26160064,0.34026375,-1.2487923,4.946787,-2.9228375,1.1009319
404,2026-05-11 16:08:39.247033,0.26160064,0.34026375,-1.2487923,4.946787,-2.9228375,1.1009319
405,2026-05-11 16:08:39.249588,0.26160064,0.34026375,-1.2487923,4.946787,-2.9228375,1.1009319
406,2026-05-11 16:08:39.252968,0.26160064,0.34026375,-1.2487923,4.946787,-2.9228375,1.1009319
407,2026-05-11 16:08:39.255619,0.26160064,0.34026375,-1.2487923,4.946787,-2.9228375,1.1009319
408,2026-05-11 16:08:39.258425,0.26160064,0.34026375,-1.2487923,4.946787,-2.9228375,1.1009319
409,2026-05-11 16:08:39.261049,0.26160064,0.34026375,-1.2487923,4.946787,-2.9228375,1.1009319
410,2026-05-11 16:08:39.263710,0.26160064,0.34026375,-1.2487923,4.946787,-2.9228375,1.1009319
411,2026-05-11 16:08:39.266473,0.26160064,0.34026375,-1.2487923,4.946787,-2.9228375,1.1009319
412,2026-05-11 16:08:39.269699,0.26160064,0.34026375,-1.2487923,4.946787,-2.9228375,1.1009319
413,2026-05-11 16:08:39.272293,0.26160064,0.34026375,-1.2487923,4.946787,-2.9228375,1.1009319
414,2026-05-11 16:08:39.275144,0.26160064,0.34026375,-1.2487923,4.946787,-2.9228375,1.1009319
415,2026-05-11 16:08:39.277741,0.26160064,0.34026375,-1.2487923,4.946787,-2.9228375,1.1009319
416,2026-05-11 16:08:39.280495,0.26160064,0.34026375,-1.2487923,4.946787,-2.9228375,1.1009319
417,2026-05-11 16:08:39.283129,0.26160064,0.34026375,-1.2487923,4.946787,-2.9228375,1.1009319
418,2026-05-11 16:08:39.286191,0.26160064,0.34026375,-1.2487923,4.946787,-2.9228375,1.1009319
419,2026-05-11 16:08:39.289001,0.26160064,0.34026375,-1.2487923,4.946787,-2.9228375,1.1009319
420,2026-05-11 16:08:39.291608,0.26160064,0.34026375,-1.2487923,4.946787,-2.9228375,1.1009319
421,2026-05-11 16:08:39.294258,0.26160064,0.34026375,-1.2487923,4.946787,-2.9228375,1.1009319
422,2026-05-11 16:08:39.296915,0.26160064,0.34026375,-1.2487923,4.946787,-2.9228375,1.1009319
423,2026-05-11 16:08:39.300305,0.26160064,0.34026375,-1.2487923,4.946787,-2.9228375,1.1009319
424,2026-05-11 16:08:39.303169,0.26160064,0.34026375,-1.2487923,4.946787,-2.9228375,1.1009319
425,2026-05-11 16:08:39.305769,0.26160064,0.34026375,-1.2487923,4.946787,-2.9228375,1.1009319
426,2026-05-11 16:08:39.308515,0.26160064,0.34026375,-1.2487923,4.946787,-2.9228375,1.1009319
427,2026-05-11 16:08:39.311143,0.26160064,0.34026375,-1.2487923,4.946787,-2.9228375,1.1009319
428,2026-05-11 16:08:39.313714,0.26160064,0.34026375,-1.2487923,4.946787,-2.9228375,1.1009319
429,2026-05-11 16:08:39.316729,0.26160064,0.34026375,-1.2487923,4.946787,-2.9228375,1.1009319
430,2026-05-11 16:08:39.319430,0.26160064,0.34026375,-1.2487923,4.946787,-2.9228375,1.1009319
431,2026-05-11 16:08:39.322034,0.26160064,0.34026375,-1.2487923,4.946787,-2.9228375,1.1009319
432,2026-05-11 16:08:39.324783,0.26160064,0.34026375,-1.2487923,4.946787,-2.9228375,1.1009319
433,2026-05-11 16:08:39.327372,0.26160064,0.34026375,-1.2487923,4.946787,-2.9228375,1.1009319
434,2026-05-11 16:08:39.330104,0.26160064,0.34026375,-1.2487923,4.946787,-2.9228375,1.1009319
435,2026-05-11 16:08:39.333010,0.26160064,0.34026375,-1.2487923,4.946787,-2.9228375,1.1009319
436,2026-05-11 16:08:39.335976,0.26160064,0.34026375,-1.2487923,4.946787,-2.9228375,1.1009319
437,2026-05-11 16:08:39.338541,0.26160064,0.34026375,-1.2487923,4.946787,-2.9228375,1.1009319
438,2026-05-11 16:08:39.341396,0.26160064,0.34026375,-1.2487923,4.946787,-2.9228375,1.1009319
439,2026-05-11 16:08:39.343999,0.26160064,0.34026375,-1.2487923,4.946787,-2.9228375,1.1009319
440,2026-05-11 16:08:39.346710,0.26160064,0.34026375,-1.2487923,4.946787,-2.9228375,1.1009319
441,2026-05-11 16:08:39.349320,0.26160064,0.34026375,-1.2487923,4.946787,-2.9228375,1.1009319
442,2026-05-11 16:08:39.352407,0.26160064,0.34026375,-1.2487923,4.946787,-2.9228375,1.1009319
443,2026-05-11 16:08:39.355063,0.26160064,0.34026375,-1.2487923,4.946787,-2.9228375,1.1009319
444,2026-05-11 16:08:39.357803,0.26160064,0.34026375,-1.2487923,4.946787,-2.9228375,1.1009319
445,2026-05-11 16:08:39.360687,0.5488735,0.32251883,-1.4122165,2.3735168,-1.6186402,1.7310394
446,2026-05-11 16:08:39.363447,0.5488735,0.32251883,-1.4122165,2.3735168,-1.6186402,1.7310394
447,2026-05-11 16:08:39.366056,0.5488735,0.32251883,-1.4122165,2.3735168,-1.6186402,1.7310394
448,2026-05-11 16:08:39.369264,0.5488735,0.32251883,-1.4122165,2.3735168,-1.6186402,1.7310394
449,2026-05-11 16:08:39.371920,0.5488735,0.32251883,-1.4122165,2.3735168,-1.6186402,1.7310394
450,2026-05-11 16:08:39.374542,0.5488735,0.32251883,-1.4122165,2.3735168,-1.6186402,1.7310394
451,2026-05-11 16:08:39.377302,0.5488735,0.32251883,-1.4122165,2.3735168,-1.6186402,1.7310394
452,2026-05-11 16:08:39.379892,0.5488735,0.32251883,-1.4122165,2.3735168,-1.6186402,1.7310394
453,2026-05-11 16:08:39.382474,0.5488735,0.32251883,-1.4122165,2.3735168,-1.6186402,1.7310394
454,2026-05-11 16:08:39.385656,0.5488735,0.32251883,-1.4122165,2.3735168,-1.6186402,1.7310394
455,2026-05-11 16:08:39.388353,0.5488735,0.32251883,-1.4122165,2.3735168,-1.6186402,1.7310394
456,2026-05-11 16:08:39.391048,0.5488735,0.32251883,-1.4122165,2.3735168,-1.6186402,1.7310394
457,2026-05-11 16:08:39.393769,0.5488735,0.32251883,-1.4122165,2.3735168,-1.6186402,1.7310394
458,2026-05-11 16:08:39.396465,0.5488735,0.32251883,-1.4122165,2.3735168,-1.6186402,1.7310394
459,2026-05-11 16:08:39.399443,0.5488735,0.32251883,-1.4122165,2.3735168,-1.6186402,1.7310394
460,2026-05-11 16:08:39.402408,0.5488735,0.32251883,-1.4122165,2.3735168,-1.6186402,1.7310394
461,2026-05-11 16:08:39.405062,0.5488735,0.32251883,-1.4122165,2.3735168,-1.6186402,1.7310394
462,2026-05-11 16:08:39.407658,0.5488735,0.32251883,-1.4122165,2.3735168,-1.6186402,1.7310394
463,2026-05-11 16:08:39.410485,0.5488735,0.32251883,-1.4122165,2.3735168,-1.6186402,1.7310394
464,2026-05-11 16:08:39.413076,0.5488735,0.32251883,-1.4122165,2.3735168,-1.6186402,1.7310394
465,2026-05-11 16:08:39.415651,0.5488735,0.32251883,-1.4122165,2.3735168,-1.6186402,1.7310394
466,2026-05-11 16:08:39.418797,0.5488735,0.32251883,-1.4122165,2.3735168,-1.6186402,1.7310394
467,2026-05-11 16:08:39.421499,0.5488735,0.32251883,-1.4122165,2.3735168,-1.6186402,1.7310394
468,2026-05-11 16:08:39.424118,0.5488735,0.32251883,-1.4122165,2.3735168,-1.6186402,1.7310394
469,2026-05-11 16:08:39.426820,0.5488735,0.32251883,-1.4122165,2.3735168,-1.6186402,1.7310394
470,2026-05-11 16:08:39.429387,0.5488735,0.32251883,-1.4122165,2.3735168,-1.6186402,1.7310394
471,2026-05-11 16:08:39.431965,0.5488735,0.32251883,-1.4122165,2.3735168,-1.6186402,1.7310394
472,2026-05-11 16:08:39.435014,0.5488735,0.32251883,-1.4122165,2.3735168,-1.6186402,1.7310394
473,2026-05-11 16:08:39.437635,0.5488735,0.32251883,-1.4122165,2.3735168,-1.6186402,1.7310394
474,2026-05-11 16:08:39.440470,0.5488735,0.32251883,-1.4122165,2.3735168,-1.6186402,1.7310394
475,2026-05-11 16:08:39.443082,0.5488735,0.32251883,-1.4122165,2.3735168,-1.6186402,1.7310394
476,2026-05-11 16:08:39.445969,0.5488735,0.32251883,-1.4122165,2.3735168,-1.6186402,1.7310394
477,2026-05-11 16:08:39.448783,0.5488735,0.32251883,-1.4122165,2.3735168,-1.6186402,1.7310394
478,2026-05-11 16:08:39.452118,0.5488735,0.32251883,-1.4122165,2.3735168,-1.6186402,1.7310394
479,2026-05-11 16:08:39.454803,0.5488735,0.32251883,-1.4122165,2.3735168,-1.6186402,1.7310394
480,2026-05-11 16:08:39.457535,0.7093707,0.2689791,-1.1483598,2.3735168,-1.6186402,1.7310394
481,2026-05-11 16:08:39.460183,0.83041435,0.1358006,-0.7183346,-0.2585487,-1.0859656,2.8053987
482,2026-05-11 16:08:39.462722,0.83041435,0.1358006,-0.7183346,-0.2585487,-1.0859656,2.8053987
483,2026-05-11 16:08:39.465247,0.83041435,0.1358006,-0.7183346,-0.2585487,-1.0859656,2.8053987
484,2026-05-11 16:08:39.468437,0.83041435,0.1358006,-0.7183346,-0.2585487,-1.0859656,2.8053987
485,2026-05-11 16:08:39.471039,0.83041435,0.1358006,-0.7183346,-0.2585487,-1.0859656,2.8053987
486,2026-05-11 16:08:39.473793,0.83041435,0.1358006,-0.7183346,-0.2585487,-1.0859656,2.8053987
487,2026-05-11 16:08:39.476426,0.83041435,0.1358006,-0.7183346,-0.2585487,-1.0859656,2.8053987
488,2026-05-11 16:08:39.479020,0.83041435,0.1358006,-0.7183346,-0.2585487,-1.0859656,2.8053987
489,2026-05-11 16:08:39.481511,0.83041435,0.1358006,-0.7183346,-0.2585487,-1.0859656,2.8053987
490,2026-05-11 16:08:39.484624,0.83041435,0.1358006,-0.7183346,-0.2585487,-1.0859656,2.8053987
491,2026-05-11 16:08:39.487350,0.83041435,0.1358006,-0.7183346,-0.2585487,-1.0859656,2.8053987
492,2026-05-11 16:08:39.489963,0.83041435,0.1358006,-0.7183346,-0.2585487,-1.0859656,2.8053987
493,2026-05-11 16:08:39.492739,0.83041435,0.1358006,-0.7183346,-0.2585487,-1.0859656,2.8053987
494,2026-05-11 16:08:39.495343,0.83041435,0.1358006,-0.7183346,-0.2585487,-1.0859656,2.8053987
495,2026-05-11 16:08:39.498245,0.83041435,0.1358006,-0.7183346,-0.2585487,-1.0859656,2.8053987
496,2026-05-11 16:08:39.501429,0.83041435,0.1358006,-0.7183346,-0.2585487,-1.0859656,2.8053987
497,2026-05-11 16:08:39.504181,0.83041435,0.1358006,-0.7183346,-0.2585487,-1.0859656,2.8053987
498,2026-05-11 16:08:39.506774,0.83041435,0.1358006,-0.7183346,-0.2585487,-1.0859656,2.8053987
499,2026-05-11 16:08:39.509650,0.83041435,0.1358006,-0.7183346,-0.2585487,-1.0859656,2.8053987
500,2026-05-11 16:08:39.512419,0.83041435,0.1358006,-0.7183346,-0.2585487,-1.0859656,2.8053987
501,2026-05-11 16:08:39.515153,0.83041435,0.1358006,-0.7183346,-0.2585487,-1.0859656,2.8053987
502,2026-05-11 16:08:39.518100,0.83041435,0.1358006,-0.7183346,-0.2585487,-1.0859656,2.8053987
503,2026-05-11 16:08:39.520924,0.83041435,0.1358006,-0.7183346,-0.2585487,-1.0859656,2.8053987
504,2026-05-11 16:08:39.523653,0.83041435,0.1358006,-0.7183346,-0.2585487,-1.0859656,2.8053987
505,2026-05-11 16:08:39.526267,0.83041435,0.1358006,-0.7183346,-0.2585487,-1.0859656,2.8053987
506,2026-05-11 16:08:39.529074,0.83041435,0.1358006,-0.7183346,-0.2585487,-1.0859656,2.8053987
507,2026-05-11 16:08:39.531662,0.83041435,0.1358006,-0.7183346,-0.2585487,-1.0859656,2.8053987
508,2026-05-11 16:08:39.534738,0.83041435,0.1358006,-0.7183346,-0.2585487,-1.0859656,2.8053987
509,2026-05-11 16:08:39.537408,0.83041435,0.1358006,-0.7183346,-0.2585487,-1.0859656,2.8053987
510,2026-05-11 16:08:39.539975,0.83041435,0.1358006,-0.7183346,-0.2585487,-1.0859656,2.8053987
511,2026-05-11 16:08:39.542686,0.83041435,0.1358006,-0.7183346,-0.2585487,-1.0859656,2.8053987
512,2026-05-11 16:08:39.545266,0.83041435,0.1358006,-0.7183346,-0.2585487,-1.0859656,2.8053987
513,2026-05-11 16:08:39.547826,0.83041435,0.1358006,-0.7183346,-0.2585487,-1.0859656,2.8053987
514,2026-05-11 16:08:39.550959,0.83041435,0.1358006,-0.7183346,-0.2585487,-1.0859656,2.8053987
515,2026-05-11 16:08:39.553730,1.0691477,0.0014025208,-0.30684718,-0.2585487,-1.0859656,2.8053987
516,2026-05-11 16:08:39.556529,1.0691477,0.0014025208,-0.30684718,-0.2585487,-1.0859656,2.8053987
517,2026-05-11 16:08:39.559259,1.0691477,0.0014025208,-0.30684718,-0.2585487,-1.0859656,2.8053987
518,2026-05-11 16:08:39.562005,1.0691477,0.0014025208,-0.30684718,-0.2585487,-1.0859656,2.8053987
519,2026-05-11 16:08:39.564557,1.0691477,0.0014025208,-0.30684718,-0.2585487,-1.0859656,2.8053987
520,2026-05-11 16:08:39.567563,1.0691477,0.0014025208,-0.30684718,-0.2585487,-1.0859656,2.8053987
521,2026-05-11 16:08:39.570196,1.0691477,0.0014025208,-0.30684718,-0.2585487,-1.0859656,2.8053987
522,2026-05-11 16:08:39.572780,1.0691477,0.0014025208,-0.30684718,-0.2585487,-1.0859656,2.8053987
523,2026-05-11 16:08:39.575604,1.0691477,0.0014025208,-0.30684718,-0.2585487,-1.0859656,2.8053987
524,2026-05-11 16:08:39.578217,1.0691477,0.0014025208,-0.30684718,-0.2585487,-1.0859656,2.8053987
525,2026-05-11 16:08:39.580774,1.0691477,0.0014025208,-0.30684718,-0.2585487,-1.0859656,2.8053987
526,2026-05-11 16:08:39.583812,1.0691477,0.0014025208,-0.30684718,-0.2585487,-1.0859656,2.8053987
527,2026-05-11 16:08:39.586440,1.0691477,0.0014025208,-0.30684718,-0.2585487,-1.0859656,2.8053987
528,2026-05-11 16:08:39.589037,1.0691477,0.0014025208,-0.30684718,-0.2585487,-1.0859656,2.8053987
529,2026-05-11 16:08:39.591835,1.0691477,0.0014025208,-0.30684718,-0.2585487,-1.0859656,2.8053987
530,2026-05-11 16:08:39.594477,1.0691477,0.0014025208,-0.30684718,-0.2585487,-1.0859656,2.8053987
531,2026-05-11 16:08:39.597176,1.0691477,0.0014025208,-0.30684718,-0.2585487,-1.0859656,2.8053987
532,2026-05-11 16:08:39.600167,1.0691477,0.0014025208,-0.30684718,-0.2585487,-1.0859656,2.8053987
533,2026-05-11 16:08:39.603271,1.0691477,0.0014025208,-0.30684718,-0.2585487,-1.0859656,2.8053987
534,2026-05-11 16:08:39.606263,1.0691477,0.0014025208,-0.30684718,-0.2585487,-1.0859656,2.8053987
535,2026-05-11 16:08:39.609510,1.0691477,0.0014025208,-0.30684718,-0.2585487,-1.0859656,2.8053987
536,2026-05-11 16:08:39.612433,1.0691477,0.0014025208,-0.30684718,-0.2585487,-1.0859656,2.8053987
537,2026-05-11 16:08:39.615571,1.9411498,-0.022135438,0.13183697,1.1768318,-1.9500346,2.9772046
538,2026-05-11 16:08:39.619084,1.9411498,-0.022135438,0.13183697,1.1768318,-1.9500346,2.9772046
539,2026-05-11 16:08:39.621969,1.9411498,-0.022135438,0.13183697,1.1768318,-1.9500346,2.9772046
540,2026-05-11 16:08:39.625066,1.9411498,-0.022135438,0.13183697,1.1768318,-1.9500346,2.9772046
541,2026-05-11 16:08:39.628247,1.9411498,-0.022135438,0.13183697,1.1768318,-1.9500346,2.9772046
542,2026-05-11 16:08:39.631231,1.9411498,-0.022135438,0.13183697,1.1768318,-1.9500346,2.9772046
543,2026-05-11 16:08:39.634904,1.9411498,-0.022135438,0.13183697,1.1768318,-1.9500346,2.9772046
544,2026-05-11 16:08:39.637917,1.9411498,-0.022135438,0.13183697,1.1768318,-1.9500346,2.9772046
545,2026-05-11 16:08:39.640585,1.9411498,-0.022135438,0.13183697,1.1768318,-1.9500346,2.9772046
546,2026-05-11 16:08:39.643193,1.9411498,-0.022135438,0.13183697,1.1768318,-1.9500346,2.9772046
547,2026-05-11 16:08:39.645759,1.9411498,-0.022135438,0.13183697,1.1768318,-1.9500346,2.9772046
548,2026-05-11 16:08:39.648531,1.9411498,-0.022135438,0.13183697,1.1768318,-1.9500346,2.9772046
549,2026-05-11 16:08:39.651620,2.11988,-0.011464084,0.05713748,1.1768318,-1.9500346,2.9772046
550,2026-05-11 16:08:39.654545,2.11988,-0.011464084,0.05713748,1.1768318,-1.9500346,2.9772046
551,2026-05-11 16:08:39.657255,2.11988,-0.011464084,0.05713748,1.1768318,-1.9500346,2.9772046
552,2026-05-11 16:08:39.659862,2.11988,-0.011464084,0.05713748,1.1768318,-1.9500346,2.9772046
553,2026-05-11 16:08:39.662768,2.11988,-0.011464084,0.05713748,1.1768318,-1.9500346,2.9772046
554,2026-05-11 16:08:39.665378,2.11988,-0.011464084,0.05713748,1.1768318,-1.9500346,2.9772046
555,2026-05-11 16:08:39.668720,2.11988,-0.011464084,0.05713748,1.1768318,-1.9500346,2.9772046
556,2026-05-11 16:08:39.671366,2.11988,-0.011464084,0.05713748,1.1768318,-1.9500346,2.9772046
557,2026-05-11 16:08:39.674176,2.11988,-0.011464084,0.05713748,1.1768318,-1.9500346,2.9772046
558,2026-05-11 16:08:39.676763,2.11988,-0.011464084,0.05713748,1.1768318,-1.9500346,2.9772046
559,2026-05-11 16:08:39.679532,2.11988,-0.011464084,0.05713748,1.1768318,-1.9500346,2.9772046
560,2026-05-11 16:08:39.682132,2.11988,-0.011464084,0.05713748,1.1768318,-1.9500346,2.9772046
561,2026-05-11 16:08:39.685155,2.11988,-0.011464084,0.05713748,1.1768318,-1.9500346,2.9772046
562,2026-05-11 16:08:39.687974,2.11988,-0.011464084,0.05713748,1.1768318,-1.9500346,2.9772046
563,2026-05-11 16:08:39.690588,2.11988,-0.011464084,0.05713748,1.1768318,-1.9500346,2.9772046
564,2026-05-11 16:08:39.693359,2.11988,-0.011464084,0.05713748,1.1768318,-1.9500346,2.9772046
565,2026-05-11 16:08:39.696144,2.11988,-0.011464084,0.05713748,1.9683605,-2.0416644,2.6546676
566,2026-05-11 16:08:39.698758,2.11988,-0.011464084,0.05713748,1.9683605,-2.0416644,2.6546676
567,2026-05-11 16:08:39.701942,2.11988,-0.011464084,0.05713748,1.9683605,-2.0416644,2.6546676
568,2026-05-11 16:08:39.704638,2.11988,-0.011464084,0.05713748,1.9683605,-2.0416644,2.6546676
569,2026-05-11 16:08:39.707446,2.11988,-0.011464084,0.05713748,1.9683605,-2.0416644,2.6546676
570,2026-05-11 16:08:39.710077,2.11988,-0.011464084,0.05713748,1.9683605,-2.0416644,2.6546676
571,2026-05-11 16:08:39.712673,2.11988,-0.011464084,0.05713748,1.9683605,-2.0416644,2.6546676
572,2026-05-11 16:08:39.715415,2.11988,-0.011464084,0.05713748,1.9683605,-2.0416644,2.6546676
573,2026-05-11 16:08:39.718466,2.11988,-0.011464084,0.05713748,1.9683605,-2.0416644,2.6546676
574,2026-05-11 16:08:39.721312,2.11988,-0.011464084,0.05713748,1.9683605,-2.0416644,2.6546676
575,2026-05-11 16:08:39.724015,2.0407898,-0.0070126047,-0.3389832,2.470339,-1.83733,2.1792617
576,2026-05-11 16:08:39.726593,2.0407898,-0.0070126047,-0.3389832,2.470339,-1.83733,2.1792617
577,2026-05-11 16:08:39.729446,2.0407898,-0.0070126047,-0.3389832,2.470339,-1.83733,2.1792617
578,2026-05-11 16:08:39.732066,2.0407898,-0.0070126047,-0.3389832,2.470339,-1.83733,2.1792617
579,2026-05-11 16:08:39.735053,2.0407898,-0.0070126047,-0.3389832,2.470339,-1.83733,2.1792617
580,2026-05-11 16:08:39.737861,2.0407898,-0.0070126047,-0.3389832,2.470339,-1.83733,2.1792617
581,2026-05-11 16:08:39.740518,1.8770608,0.009085896,-0.46277088,2.470339,-1.83733,2.1792617
582,2026-05-11 16:08:39.743155,1.8770608,0.009085896,-0.46277088,2.3889413,-1.5532776,2.0454822
583,2026-05-11 16:08:39.745992,1.8770608,0.009085896,-0.46277088,2.3889413,-1.5532776,2.0454822
584,2026-05-11 16:08:39.748762,1.8770608,0.009085896,-0.46277088,2.3889413,-1.5532776,2.0454822
585,2026-05-11 16:08:39.751968,1.8770608,0.009085896,-0.46277088,2.3889413,-1.5532776,2.0454822
586,2026-05-11 16:08:39.754632,1.8770608,0.009085896,-0.46277088,2.3889413,-1.5532776,2.0454822
587,2026-05-11 16:08:39.757246,1.8770608,0.009085896,-0.46277088,2.3889413,-1.5532776,2.0454822
588,2026-05-11 16:08:39.759835,1.8770608,0.009085896,-0.46277088,2.3889413,-1.5532776,2.0454822
589,2026-05-11 16:08:39.762431,1.8770608,0.009085896,-0.46277088,2.3889413,-1.5532776,2.0454822
590,2026-05-11 16:08:39.764997,1.8770608,0.009085896,-0.46277088,2.3889413,-1.5532776,2.0454822
591,2026-05-11 16:08:39.768783,1.8770608,0.009085896,-0.46277088,2.3889413,-1.5532776,2.0454822
592,2026-05-11 16:08:39.771562,1.8770608,0.009085896,-0.46277088,2.3889413,-1.5532776,2.0454822
593,2026-05-11 16:08:39.774179,1.8770608,0.009085896,-0.46277088,2.3889413,-1.5532776,2.0454822
594,2026-05-11 16:08:39.776818,1.8770608,0.009085896,-0.46277088,2.3889413,-1.5532776,2.0454822
595,2026-05-11 16:08:39.779425,1.8770608,0.009085896,-0.46277088,2.3889413,-1.5532776,2.0454822
596,2026-05-11 16:08:39.781987,1.8770608,0.009085896,-0.46277088,2.3889413,-1.5532776,2.0454822
597,2026-05-11 16:08:39.785224,1.8770608,0.009085896,-0.46277088,2.3889413,-1.5532776,2.0454822
598,2026-05-11 16:08:39.788019,1.8770608,0.009085896,-0.46277088,2.3889413,-1.5532776,2.0454822
599,2026-05-11 16:08:39.790795,1.8770608,0.009085896,-0.46277088,2.3889413,-1.5532776,2.0454822
600,2026-05-11 16:08:39.793525,1.8770608,0.009085896,-0.46277088,2.3889413,-1.5532776,2.0454822
601,2026-05-11 16:08:39.796182,1.8770608,0.009085896,-0.46277088,2.3889413,-1.5532776,2.0454822
602,2026-05-11 16:08:39.798746,1.8770608,0.009085896,-0.46277088,2.3889413,-1.5532776,2.0454822
603,2026-05-11 16:08:39.801949,1.8770608,0.009085896,-0.46277088,2.3889413,-1.5532776,2.0454822
604,2026-05-11 16:08:39.804723,1.8770608,0.009085896,-0.46277088,2.3889413,-1.5532776,2.0454822
605,2026-05-11 16:08:39.807409,1.8770608,0.009085896,-0.46277088,2.3889413,-1.5532776,2.0454822
606,2026-05-11 16:08:39.810093,1.8770608,0.009085896,-0.46277088,2.3889413,-1.5532776,2.0454822
607,2026-05-11 16:08:39.812674,1.8770608,0.009085896,-0.46277088,2.3889413,-1.5532776,2.0454822
608,2026-05-11 16:08:39.815365,1.8770608,0.009085896,-0.46277088,2.3889413,-1.5532776,2.0454822
609,2026-05-11 16:08:39.818283,1.8770608,0.009085896,-0.46277088,2.3889413,-1.5532776,2.0454822
610,2026-05-11 16:08:39.821069,1.718027,0.053600688,-0.48667476,2.3889413,-1.5532776,2.0454822
611,2026-05-11 16:08:39.823843,1.718027,0.053600688,-0.48667476,2.082745,-1.1917981,2.0373883
612,2026-05-11 16:08:39.826531,1.718027,0.053600688,-0.48667476,2.082745,-1.1917981,2.0373883
613,2026-05-11 16:08:39.829264,1.718027,0.053600688,-0.48667476,2.082745,-1.1917981,2.0373883
614,2026-05-11 16:08:39.832017,1.718027,0.053600688,-0.48667476,2.082745,-1.1917981,2.0373883
615,2026-05-11 16:08:39.834991,1.718027,0.053600688,-0.48667476,2.082745,-1.1917981,2.0373883
616,2026-05-11 16:08:39.837732,1.718027,0.053600688,-0.48667476,2.082745,-1.1917981,2.0373883
617,2026-05-11 16:08:39.840350,1.718027,0.053600688,-0.48667476,2.082745,-1.1917981,2.0373883
618,2026-05-11 16:08:39.843211,1.6506451,0.08622454,-0.48393068,1.6247488,-0.73914695,2.1235204
619,2026-05-11 16:08:39.845896,1.6506451,0.08622454,-0.48393068,1.6247488,-0.73914695,2.1235204
620,2026-05-11 16:08:39.848590,1.6506451,0.08622454,-0.48393068,1.6247488,-0.73914695,2.1235204
621,2026-05-11 16:08:39.851885,1.6506451,0.08622454,-0.48393068,1.2334896,-0.52564955,2.1252003
622,2026-05-11 16:08:39.854612,1.6506451,0.08622454,-0.48393068,1.2334896,-0.52564955,2.1252003
623,2026-05-11 16:08:39.857358,1.6506451,0.08622454,-0.48393068,1.2334896,-0.52564955,2.1252003
624,2026-05-11 16:08:39.860175,1.6873544,0.23720895,-0.5417999,1.2334896,-0.52564955,2.1252003
625,2026-05-11 16:08:39.862781,1.6873544,0.23720895,-0.5417999,1.2334896,-0.52564955,2.1252003
626,2026-05-11 16:08:39.865358,1.6873544,0.23720895,-0.5417999,1.2334896,-0.52564955,2.1252003
627,2026-05-11 16:08:39.868400,1.6873544,0.23720895,-0.5417999,1.2334896,-0.52564955,2.1252003
628,2026-05-11 16:08:39.871432,1.7765671,0.30660325,-0.5325311,0.7583892,-0.51923543,1.8197676
629,2026-05-11 16:08:39.898193,1.7765671,0.30660325,-0.5325311,0.7583892,-0.51923543,1.8197676
630,2026-05-11 16:08:39.901528,1.7765671,0.30660325,-0.5325311,0.7583892,-0.51923543,1.8197676
631,2026-05-11 16:08:39.910757,1.7765671,0.30660325,-0.5325311,0.7583892,-0.51923543,1.8197676
632,2026-05-11 16:08:39.913635,1.7740669,0.31422567,-0.5100907,0.48090366,-0.36086863,1.4421002
633,2026-05-11 16:08:39.916239,1.7740669,0.31422567,-0.5100907,0.48090366,-0.36086863,1.4421002
634,2026-05-11 16:08:39.919448,1.7740669,0.31422567,-0.5100907,0.48090366,-0.36086863,1.4421002
635,2026-05-11 16:08:39.922078,1.7740669,0.31422567,-0.5100907,0.48090366,-0.36086863,1.4421002
636,2026-05-11 16:08:39.924927,1.7740669,0.31422567,-0.5100907,0.48090366,-0.36086863,1.4421002
637,2026-05-11 16:08:39.927781,1.7740669,0.31422567,-0.5100907,0.48090366,-0.36086863,1.4421002
638,2026-05-11 16:08:39.930498,1.7740669,0.31422567,-0.5100907,0.48090366,-0.36086863,1.4421002
639,2026-05-11 16:08:39.933129,1.7740669,0.31422567,-0.5100907,0.48090366,-0.36086863,1.4421002
640,2026-05-11 16:08:39.936345,1.7740669,0.31422567,-0.5100907,0.48090366,-0.36086863,1.4421002
641,2026-05-11 16:08:39.939206,1.7740669,0.31422567,-0.5100907,0.48090366,-0.36086863,1.4421002
642,2026-05-11 16:08:39.941888,1.7740669,0.31422567,-0.5100907,0.48090366,-0.36086863,1.4421002
643,2026-05-11 16:08:39.944517,1.7740669,0.31422567,-0.5100907,0.48090366,-0.36086863,1.4421002
644,2026-05-11 16:08:39.947230,1.7061971,0.3193479,-0.48990667,0.30604348,-0.19593503,1.2095132
645,2026-05-11 16:08:39.949807,1.7061971,0.3193479,-0.48990667,0.30604348,-0.19593503,1.2095132
646,2026-05-11 16:08:39.953334,1.7410772,0.32953143,-0.3699606,0.056352317,0.03268129,0.80924374
647,2026-05-11 16:08:39.956231,2.0087757,0.32526287,-0.2953831,0.056352317,0.03268129,0.80924374
648,2026-05-11 16:08:39.958948,2.0087757,0.32526287,-0.2953831,0.056352317,0.03268129,0.80924374
649,2026-05-11 16:08:39.961538,2.0087757,0.32526287,-0.2953831,0.056352317,0.03268129,0.80924374
650,2026-05-11 16:08:39.964239,2.0087757,0.32526287,-0.2953831,0.056352317,0.03268129,0.80924374
651,2026-05-11 16:08:39.967353,2.0087757,0.32526287,-0.2953831,0.12736541,0.5888741,-0.05757405
652,2026-05-11 16:08:39.970344,2.0087757,0.32526287,-0.2953831,0.12736541,0.5888741,-0.05757405
653,2026-05-11 16:08:39.972930,2.0087757,0.32526287,-0.2953831,0.12736541,0.5888741,-0.05757405
654,2026-05-11 16:08:39.975637,2.0087757,0.32526287,-0.2953831,0.12736541,0.5888741,-0.05757405
655,2026-05-11 16:08:39.978257,2.0087757,0.32526287,-0.2953831,0.12736541,0.5888741,-0.05757405
656,2026-05-11 16:08:39.981017,2.0087757,0.32526287,-0.2953831,0.12736541,0.5888741,-0.05757405
657,2026-05-11 16:08:39.984014,2.0087757,0.32526287,-0.2953831,0.12736541,0.5888741,-0.05757405
658,2026-05-11 16:08:39.986806,2.0087757,0.32526287,-0.2953831,0.12736541,0.5888741,-0.05757405
659,2026-05-11 16:08:39.989535,2.049449,0.28641915,-0.37179,0.12736541,0.5888741,-0.05757405
660,2026-05-11 16:08:39.992215,2.049449,0.28641915,-0.37179,0.12736541,0.5888741,-0.05757405
661,2026-05-11 16:08:39.994807,2.049449,0.28641915,-0.37179,0.12736541,0.5888741,-0.05757405
662,2026-05-11 16:08:39.997542,2.049449,0.28641915,-0.37179,0.12736541,0.5888741,-0.05757405
663,2026-05-11 16:08:40.000531,2.049449,0.28641915,-0.37179,0.12736541,0.5888741,-0.05757405
664,2026-05-11 16:08:40.003408,2.049449,0.28641915,-0.37179,0.12736541,0.5888741,-0.05757405
665,2026-05-11 16:08:40.006188,2.049449,0.28641915,-0.37179,0.12736541,0.5888741,-0.05757405
666,2026-05-11 16:08:40.008836,2.049449,0.28641915,-0.37179,0.12736541,0.5888741,-0.05757405
667,2026-05-11 16:08:40.011627,2.049449,0.28641915,-0.37179,0.12736541,0.5888741,-0.05757405
668,2026-05-11 16:08:40.014244,2.049449,0.28641915,-0.37179,0.12736541,0.5888741,-0.05757405
669,2026-05-11 16:08:40.017396,2.049449,0.28641915,-0.37179,0.12736541,0.5888741,-0.05757405
670,2026-05-11 16:08:40.020228,2.049449,0.28641915,-0.37179,0.12736541,0.5888741,-0.05757405
671,2026-05-11 16:08:40.022856,2.049449,0.28641915,-0.37179,0.12736541,0.5888741,-0.05757405
672,2026-05-11 16:08:40.025708,2.049449,0.28641915,-0.37179,0.12736541,0.5888741,-0.05757405
673,2026-05-11 16:08:40.028518,2.049449,0.28641915,-0.37179,0.3911065,1.0216721,-1.1137601
674,2026-05-11 16:08:40.031357,2.049449,0.28641915,-0.37179,0.3911065,1.0216721,-1.1137601
675,2026-05-11 16:08:40.034334,2.049449,0.28641915,-0.37179,0.3911065,1.0216721,-1.1137601
676,2026-05-11 16:08:40.037035,2.049449,0.28641915,-0.37179,0.3911065,1.0216721,-1.1137601
677,2026-05-11 16:08:40.039648,1.7159538,0.28123593,-0.2713573,0.3911065,1.0216721,-1.1137601
678,2026-05-11 16:08:40.042205,1.7159538,0.28123593,-0.2713573,0.3911065,1.0216721,-1.1137601
679,2026-05-11 16:08:40.044754,1.7159538,0.28123593,-0.2713573,0.3911065,1.0216721,-1.1137601
680,2026-05-11 16:08:40.047279,1.7159538,0.28123593,-0.2713573,0.3911065,1.0216721,-1.1137601
681,2026-05-11 16:08:40.050377,1.7159538,0.28123593,-0.2713573,0.3911065,1.0216721,-1.1137601
682,2026-05-11 16:08:40.053232,1.7159538,0.28123593,-0.2713573,0.3911065,1.0216721,-1.1137601
683,2026-05-11 16:08:40.055879,1.7159538,0.28123593,-0.2713573,0.3911065,1.0216721,-1.1137601
684,2026-05-11 16:08:40.058543,1.7159538,0.28123593,-0.2713573,0.3911065,1.0216721,-1.1137601
685,2026-05-11 16:08:40.061151,1.7159538,0.28123593,-0.2713573,0.3911065,1.0216721,-1.1137601
686,2026-05-11 16:08:40.064080,1.7159538,0.28123593,-0.2713573,0.572228,1.105666,-1.358717
687,2026-05-11 16:08:40.067268,1.7159538,0.28123593,-0.2713573,0.572228,1.105666,-1.358717
688,2026-05-11 16:08:40.070065,1.7159538,0.28123593,-0.2713573,0.572228,1.105666,-1.358717
689,2026-05-11 16:08:40.072785,1.7159538,0.28123593,-0.2713573,0.572228,1.105666,-1.358717
690,2026-05-11 16:08:40.075583,1.7159538,0.28123593,-0.2713573,0.572228,1.105666,-1.358717
691,2026-05-11 16:08:40.078471,1.4575241,0.28995594,-0.35026434,0.572228,1.105666,-1.358717
692,2026-05-11 16:08:40.081153,1.4575241,0.28995594,-0.35026434,0.572228,1.105666,-1.358717
693,2026-05-11 16:08:40.084196,1.4575241,0.28995594,-0.35026434,0.572228,1.105666,-1.358717
694,2026-05-11 16:08:40.087073,1.4575241,0.28995594,-0.35026434,0.572228,1.105666,-1.358717
695,2026-05-11 16:08:40.089668,1.4575241,0.28995594,-0.35026434,0.572228,1.105666,-1.358717
696,2026-05-11 16:08:40.092276,1.4575241,0.28995594,-0.35026434,0.572228,1.105666,-1.358717
697,2026-05-11 16:08:40.095109,1.4575241,0.28995594,-0.35026434,0.7997753,0.690125,-1.4549283
698,2026-05-11 16:08:40.097731,1.4575241,0.28995594,-0.35026434,0.7997753,0.690125,-1.4549283
699,2026-05-11 16:08:40.100640,1.4575241,0.28995594,-0.35026434,0.7997753,0.690125,-1.4549283
700,2026-05-11 16:08:40.103370,1.4575241,0.28995594,-0.35026434,0.7997753,0.690125,-1.4549283
701,2026-05-11 16:08:40.105952,1.4575241,0.28995594,-0.35026434,0.7997753,0.690125,-1.4549283
702,2026-05-11 16:08:40.108688,1.4575241,0.28995594,-0.35026434,0.7997753,0.690125,-1.4549283
703,2026-05-11 16:08:40.111375,1.4575241,0.28995594,-0.35026434,0.7997753,0.690125,-1.4549283
704,2026-05-11 16:08:40.114146,1.4575241,0.28995594,-0.35026434,0.7997753,0.690125,-1.4549283
705,2026-05-11 16:08:40.117134,1.4575241,0.28995594,-0.35026434,0.7997753,0.690125,-1.4549283
706,2026-05-11 16:08:40.120193,1.4575241,0.28995594,-0.35026434,0.7997753,0.690125,-1.4549283
707,2026-05-11 16:08:40.122816,1.4575241,0.28995594,-0.35026434,0.7997753,0.690125,-1.4549283
708,2026-05-11 16:08:40.125442,1.4575241,0.28995594,-0.35026434,0.7997753,0.690125,-1.4549283
709,2026-05-11 16:08:40.128178,1.2828188,0.20306063,-0.541556,0.7997753,0.690125,-1.4549283
710,2026-05-11 16:08:40.130785,1.2828188,0.20306063,-0.541556,0.7997753,0.690125,-1.4549283
711,2026-05-11 16:08:40.133917,1.2828188,0.20306063,-0.541556,0.7997753,0.690125,-1.4549283
712,2026-05-11 16:08:40.136653,1.2828188,0.20306063,-0.541556,0.7997753,0.690125,-1.4549283
713,2026-05-11 16:08:40.139255,1.2828188,0.20306063,-0.541556,0.7997753,0.690125,-1.4549283
714,2026-05-11 16:08:40.141990,1.2828188,0.20306063,-0.541556,0.7997753,0.690125,-1.4549283
715,2026-05-11 16:08:40.144630,1.2828188,0.20306063,-0.541556,0.7997753,0.690125,-1.4549283
716,2026-05-11 16:08:40.147309,1.2828188,0.20306063,-0.541556,0.7997753,0.690125,-1.4549283
717,2026-05-11 16:08:40.150294,1.2828188,0.20306063,-0.541556,0.7997753,0.690125,-1.4549283
718,2026-05-11 16:08:40.153098,1.2828188,0.20306063,-0.541556,0.7997753,0.690125,-1.4549283
719,2026-05-11 16:08:40.155699,1.2037898,0.15128931,-0.5512517,0.7997753,0.690125,-1.4549283
720,2026-05-11 16:08:40.158262,1.2037898,0.15128931,-0.5512517,0.7997753,0.690125,-1.4549283
721,2026-05-11 16:08:40.161175,1.2037898,0.15128931,-0.5512517,0.9219484,0.30100384,-1.4590516
722,2026-05-11 16:08:40.163869,1.2037898,0.15128931,-0.5512517,0.9219484,0.30100384,-1.4590516
723,2026-05-11 16:08:40.166922,1.2037898,0.15128931,-0.5512517,0.9219484,0.30100384,-1.4590516
724,2026-05-11 16:08:40.169625,1.2037898,0.15128931,-0.5512517,0.9219484,0.30100384,-1.4590516
725,2026-05-11 16:08:40.172221,1.2037898,0.15128931,-0.5512517,0.9219484,0.30100384,-1.4590516
726,2026-05-11 16:08:40.174921,1.2037898,0.15128931,-0.5512517,0.9219484,0.30100384,-1.4590516
727,2026-05-11 16:08:40.177502,1.2037898,0.15128931,-0.5512517,0.9219484,0.30100384,-1.4590516
728,2026-05-11 16:08:40.180259,1.2037898,0.15128931,-0.5512517,0.9219484,0.30100384,-1.4590516
729,2026-05-11 16:08:40.182882,1.2037898,0.15128931,-0.5512517,0.9219484,0.30100384,-1.4590516
730,2026-05-11 16:08:40.186059,1.2037898,0.15128931,-0.5512517,0.9219484,0.30100384,-1.4590516
731,2026-05-11 16:08:40.188772,1.2037898,0.15128931,-0.5512517,0.9219484,0.30100384,-1.4590516
732,2026-05-11 16:08:40.191360,1.2037898,0.15128931,-0.5512517,0.9219484,0.30100384,-1.4590516
733,2026-05-11 16:08:40.193953,1.2037898,0.15128931,-0.5512517,0.9219484,0.30100384,-1.4590516
734,2026-05-11 16:08:40.196574,1.2037898,0.15128931,-0.5512517,0.9219484,0.30100384,-1.4590516
735,2026-05-11 16:08:40.199610,1.2037898,0.15128931,-0.5512517,0.9219484,0.30100384,-1.4590516
736,2026-05-11 16:08:40.202483,1.2037898,0.15128931,-0.5512517,0.9219484,0.30100384,-1.4590516
737,2026-05-11 16:08:40.205092,1.2037898,0.15128931,-0.5512517,1.0468704,-0.1469131,-1.3147347
738,2026-05-11 16:08:40.207886,1.2037898,0.15128931,-0.5512517,1.0468704,-0.1469131,-1.3147347
739,2026-05-11 16:08:40.210602,1.2037898,0.15128931,-0.5512517,1.0468704,-0.1469131,-1.3147347
740,2026-05-11 16:08:40.213248,1.1536039,0.13195892,-0.57881427,1.0468704,-0.1469131,-1.3147347
741,2026-05-11 16:08:40.216391,1.1536039,0.13195892,-0.57881427,1.0468704,-0.1469131,-1.3147347
742,2026-05-11 16:08:40.219367,1.2562928,0.15976542,-0.67083186,0.98440933,-0.38805214,-1.2240212
743,2026-05-11 16:08:40.221955,1.2562928,0.15976542,-0.67083186,0.98440933,-0.38805214,-1.2240212
744,2026-05-11 16:08:40.224529,1.2562928,0.15976542,-0.67083186,0.98440933,-0.38805214,-1.2240212
745,2026-05-11 16:08:40.227167,1.2562928,0.15976542,-0.67083186,0.98440933,-0.38805214,-1.2240212
746,2026-05-11 16:08:40.230067,1.2562928,0.15976542,-0.67083186,0.98440933,-0.38805214,-1.2240212
747,2026-05-11 16:08:40.232820,1.2562928,0.15976542,-0.67083186,0.98440933,-0.38805214,-1.2240212
748,2026-05-11 16:08:40.235899,1.2562928,0.15976542,-0.67083186,0.98440933,-0.38805214,-1.2240212
749,2026-05-11 16:08:40.238657,1.2562928,0.15976542,-0.67083186,0.98440933,-0.38805214,-1.2240212
750,2026-05-11 16:08:40.241365,1.2562928,0.15976542,-0.67083186,0.98440933,-0.38805214,-1.2240212
751,2026-05-11 16:08:40.244105,1.2562928,0.15976542,-0.67083186,0.98440933,-0.38805214,-1.2240212
752,2026-05-11 16:08:40.246683,1.2562928,0.15976542,-0.67083186,0.98440933,-0.38805214,-1.2240212
753,2026-05-11 16:08:40.249528,1.2562928,0.15976542,-0.67083186,0.98440933,-0.38805214,-1.2240212
754,2026-05-11 16:08:40.252412,1.2562928,0.15976542,-0.67083186,0.80771655,-0.54718256,-1.2545645
755,2026-05-11 16:08:40.255025,1.2562928,0.15976542,-0.67083186,0.80771655,-0.54718256,-1.2545645
756,2026-05-11 16:08:40.257800,1.2562928,0.15976542,-0.67083186,0.80771655,-0.54718256,-1.2545645
757,2026-05-11 16:08:40.260528,1.2562928,0.15976542,-0.67083186,0.80771655,-0.54718256,-1.2545645
758,2026-05-11 16:08:40.263106,1.2562928,0.15976542,-0.67083186,0.80771655,-0.54718256,-1.2545645
759,2026-05-11 16:08:40.265677,1.2562928,0.15976542,-0.67083186,0.80771655,-0.54718256,-1.2545645
760,2026-05-11 16:08:40.268656,1.2562928,0.15976542,-0.67083186,0.80771655,-0.54718256,-1.2545645
761,2026-05-11 16:08:40.271480,1.3158695,0.17555903,-0.67979574,0.80771655,-0.54718256,-1.2545645
762,2026-05-11 16:08:40.274149,1.3158695,0.17555903,-0.67979574,0.80771655,-0.54718256,-1.2545645
763,2026-05-11 16:08:40.276834,1.3158695,0.17555903,-0.67979574,0.80771655,-0.54718256,-1.2545645
764,2026-05-11 16:08:40.279416,1.3158695,0.17555903,-0.67979574,0.80771655,-0.54718256,-1.2545645
765,2026-05-11 16:08:40.282066,1.3158695,0.17555903,-0.67979574,0.80771655,-0.54718256,-1.2545645
766,2026-05-11 16:08:40.285075,1.3158695,0.17555903,-0.67979574,0.80771655,-0.54718256,-1.2545645
767,2026-05-11 16:08:40.287888,1.3158695,0.17555903,-0.67979574,0.80771655,-0.54718256,-1.2545645
768,2026-05-11 16:08:40.290534,1.3158695,0.17555903,-0.67979574,0.80771655,-0.54718256,-1.2545645
769,2026-05-11 16:08:40.293157,1.3158695,0.17555903,-0.67979574,0.80771655,-0.54718256,-1.2545645
770,2026-05-11 16:08:40.295933,1.446121,0.22354963,-0.6810763,-0.016493361,-0.3585779,-1.5184582
771,2026-05-11 16:08:40.298510,1.446121,0.22354963,-0.6810763,-0.016493361,-0.3585779,-1.5184582
772,2026-05-11 16:08:40.301919,1.446121,0.22354963,-0.6810763,-0.016493361,-0.3585779,-1.5184582
773,2026-05-11 16:08:40.304809,1.446121,0.22354963,-0.6810763,-0.016493361,-0.3585779,-1.5184582
774,2026-05-11 16:08:40.307665,1.6271071,0.25800288,-0.4665516,-0.37308595,-0.00015271631,-1.6901114
775,2026-05-11 16:08:40.310498,1.6271071,0.25800288,-0.4665516,-0.46196684,0.32742378,-2.0517437
776,2026-05-11 16:08:40.313260,1.6271071,0.25800288,-0.4665516,-0.46196684,0.32742378,-2.0517437
777,2026-05-11 16:08:40.315864,1.6271071,0.25800288,-0.4665516,-0.46196684,0.32742378,-2.0517437
778,2026-05-11 16:08:40.318979,1.6271071,0.25800288,-0.4665516,-0.46196684,0.32742378,-2.0517437
779,2026-05-11 16:08:40.321911,1.6271071,0.25800288,-0.4665516,-0.46196684,0.32742378,-2.0517437
780,2026-05-11 16:08:40.324648,1.6271071,0.25800288,-0.4665516,-0.46196684,0.32742378,-2.0517437
781,2026-05-11 16:08:40.327247,1.6271071,0.25800288,-0.4665516,-0.46196684,0.32742378,-2.0517437
782,2026-05-11 16:08:40.330012,1.6271071,0.25800288,-0.4665516,-0.46196684,0.32742378,-2.0517437
783,2026-05-11 16:08:40.333043,1.6271071,0.25800288,-0.4665516,-0.46196684,0.32742378,-2.0517437
784,2026-05-11 16:08:40.335941,1.6271071,0.25800288,-0.4665516,-0.46196684,0.32742378,-2.0517437
785,2026-05-11 16:08:40.338524,1.6271071,0.25800288,-0.4665516,-0.46196684,0.32742378,-2.0517437
786,2026-05-11 16:08:40.341279,1.6271071,0.25800288,-0.4665516,-0.46196684,0.32742378,-2.0517437
787,2026-05-11 16:08:40.343881,1.6271071,0.25800288,-0.4665516,-0.46196684,0.32742378,-2.0517437
788,2026-05-11 16:08:40.346715,1.6271071,0.25800288,-0.4665516,-0.46196684,0.32742378,-2.0517437
789,2026-05-11 16:08:40.349523,1.6804029,0.30873755,-0.29044378,-0.46196684,0.32742378,-2.0517437
790,2026-05-11 16:08:40.352701,1.6804029,0.30873755,-0.29044378,-0.46196684,0.32742378,-2.0517437
791,2026-05-11 16:08:40.355354,1.6804029,0.30873755,-0.29044378,-0.46196684,0.32742378,-2.0517437
792,2026-05-11 16:08:40.358185,1.6069231,0.30379823,-0.18458393,-0.46196684,0.32742378,-2.0517437
793,2026-05-11 16:08:40.360804,1.6069231,0.30379823,-0.18458393,-0.46196684,0.32742378,-2.0517437
794,2026-05-11 16:08:40.363568,1.6069231,0.30379823,-0.18458393,-0.46196684,0.32742378,-2.0517437
795,2026-05-11 16:08:40.366167,1.6069231,0.30379823,-0.18458393,-0.46196684,0.32742378,-2.0517437
796,2026-05-11 16:08:40.369401,1.6069231,0.30379823,-0.18458393,-0.46196684,0.32742378,-2.0517437
797,2026-05-11 16:08:40.372074,1.6069231,0.30379823,-0.18458393,-0.46196684,0.32742378,-2.0517437
798,2026-05-11 16:08:40.374663,1.6069231,0.30379823,-0.18458393,-0.46196684,0.32742378,-2.0517437
799,2026-05-11 16:08:40.377217,1.6069231,0.30379823,-0.18458393,-0.46196684,0.32742378,-2.0517437
800,2026-05-11 16:08:40.379916,1.6069231,0.30379823,-0.18458393,-0.46196684,0.32742378,-2.0517437
801,2026-05-11 16:08:40.382543,1.6069231,0.30379823,-0.18458393,-0.46196684,0.32742378,-2.0517437
802,2026-05-11 16:08:40.385718,1.6069231,0.30379823,-0.18458393,-0.46196684,0.32742378,-2.0517437
803,2026-05-11 16:08:40.388397,1.6069231,0.30379823,-0.18458393,-0.46196684,0.32742378,-2.0517437
804,2026-05-11 16:08:40.391036,1.6069231,0.30379823,-0.18458393,-0.46196684,0.32742378,-2.0517437
805,2026-05-11 16:08:40.393977,1.6069231,0.30379823,-0.18458393,-0.46196684,0.32742378,-2.0517437
806,2026-05-11 16:08:40.396807,1.6069231,0.30379823,-0.18458393,-0.3324634,0.54305923,-2.3942864
807,2026-05-11 16:08:40.399566,1.3482493,0.23952618,-0.13275166,-0.3324634,0.54305923,-2.3942864
808,2026-05-11 16:08:40.402777,1.3482493,0.23952618,-0.13275166,0.016187929,0.7415904,-2.6875017
809,2026-05-11 16:08:40.405492,1.3482493,0.23952618,-0.13275166,0.016187929,0.7415904,-2.6875017
810,2026-05-11 16:08:40.408094,1.3482493,0.23952618,-0.13275166,0.016187929,0.7415904,-2.6875017
811,2026-05-11 16:08:40.410861,1.3482493,0.23952618,-0.13275166,0.016187929,0.7415904,-2.6875017
812,2026-05-11 16:08:40.413457,1.3482493,0.23952618,-0.13275166,0.016187929,0.7415904,-2.6875017
813,2026-05-11 16:08:40.416385,1.3482493,0.23952618,-0.13275166,0.016187929,0.7415904,-2.6875017
814,2026-05-11 16:08:40.419505,1.3482493,0.23952618,-0.13275166,0.016187929,0.7415904,-2.6875017
815,2026-05-11 16:08:40.422190,1.3482493,0.23952618,-0.13275166,0.016187929,0.7415904,-2.6875017
816,2026-05-11 16:08:40.424791,1.3482493,0.23952618,-0.13275166,0.016187929,0.7415904,-2.6875017
817,2026-05-11 16:08:40.427519,1.3482493,0.23952618,-0.13275166,0.016187929,0.7415904,-2.6875017
818,2026-05-11 16:08:40.430142,1.3482493,0.23952618,-0.13275166,0.016187929,0.7415904,-2.6875017
819,2026-05-11 16:08:40.432758,1.3482493,0.23952618,-0.13275166,0.016187929,0.7415904,-2.6875017
820,2026-05-11 16:08:40.435881,1.3482493,0.23952618,-0.13275166,0.016187929,0.7415904,-2.6875017
821,2026-05-11 16:08:40.438657,1.3482493,0.23952618,-0.13275166,0.016187929,0.7415904,-2.6875017
822,2026-05-11 16:08:40.441331,1.3482493,0.23952618,-0.13275166,0.016187929,0.7415904,-2.6875017
823,2026-05-11 16:08:40.443907,1.3482493,0.23952618,-0.13275166,0.016187929,0.7415904,-2.6875017
824,2026-05-11 16:08:40.446601,1.3482493,0.23952618,-0.13275166,0.016187929,0.7415904,-2.6875017
825,2026-05-11 16:08:40.449279,1.3482493,0.23952618,-0.13275166,0.016187929,0.7415904,-2.6875017
826,2026-05-11 16:08:40.452606,1.3482493,0.23952618,-0.13275166,0.016187929,0.7415904,-2.6875017
827,2026-05-11 16:08:40.455497,1.3482493,0.23952618,-0.13275166,0.016187929,0.7415904,-2.6875017
828,2026-05-11 16:08:40.458191,1.3482493,0.23952618,-0.13275166,0.016187929,0.7415904,-2.6875017
829,2026-05-11 16:08:40.460811,1.3482493,0.23952618,-0.13275166,0.016187929,0.7415904,-2.6875017
830,2026-05-11 16:08:40.463486,1.3482493,0.23952618,-0.13275166,0.016187929,0.7415904,-2.6875017
831,2026-05-11 16:08:40.466122,1.1492134,0.21659799,-0.16330221,0.016187929,0.7415904,-2.6875017
832,2026-05-11 16:08:40.469336,1.1492134,0.21659799,-0.16330221,0.016187929,0.7415904,-2.6875017
833,2026-05-11 16:08:40.472225,1.1492134,0.21659799,-0.16330221,0.2771801,0.76159626,-2.7391198
834,2026-05-11 16:08:40.474843,1.1492134,0.21659799,-0.16330221,0.2771801,0.76159626,-2.7391198
835,2026-05-11 16:08:40.477460,1.1492134,0.21659799,-0.16330221,0.2771801,0.76159626,-2.7391198
836,2026-05-11 16:08:40.480026,1.1492134,0.21659799,-0.16330221,0.2771801,0.76159626,-2.7391198
837,2026-05-11 16:08:40.482607,1.1492134,0.21659799,-0.16330221,0.2771801,0.76159626,-2.7391198
838,2026-05-11 16:08:40.485899,1.1492134,0.21659799,-0.16330221,0.2771801,0.76159626,-2.7391198
839,2026-05-11 16:08:40.488626,1.1492134,0.21659799,-0.16330221,0.2771801,0.76159626,-2.7391198
840,2026-05-11 16:08:40.491421,0.63979346,0.18958424,-0.368863,0.73426,0.4098906,-2.4539983
841,2026-05-11 16:08:40.494145,0.33977592,0.23519666,-0.6455255,0.733191,0.06841691,-1.9640845
842,2026-05-11 16:08:40.496731,0.33977592,0.23519666,-0.6455255,0.733191,0.06841691,-1.9640845
843,2026-05-11 16:08:40.499266,0.33977592,0.23519666,-0.6455255,0.733191,0.06841691,-1.9640845
844,2026-05-11 16:08:40.502861,0.33977592,0.23519666,-0.6455255,0.733191,0.06841691,-1.9640845
845,2026-05-11 16:08:40.505993,0.33977592,0.23519666,-0.6455255,0.733191,0.06841691,-1.9640845
846,2026-05-11 16:08:40.508672,0.33977592,0.23519666,-0.6455255,0.733191,0.06841691,-1.9640845
847,2026-05-11 16:08:40.511315,0.33977592,0.23519666,-0.6455255,0.733191,0.06841691,-1.9640845
848,2026-05-11 16:08:40.514066,0.33977592,0.23519666,-0.6455255,0.733191,0.06841691,-1.9640845
849,2026-05-11 16:08:40.516756,0.33977592,0.23519666,-0.6455255,0.733191,0.06841691,-1.9640845
850,2026-05-11 16:08:40.520179,0.33977592,0.23519666,-0.6455255,0.733191,0.06841691,-1.9640845
851,2026-05-11 16:08:40.523132,0.33977592,0.23519666,-0.6455255,0.733191,0.06841691,-1.9640845
852,2026-05-11 16:08:40.525977,0.33977592,0.23519666,-0.6455255,0.733191,0.06841691,-1.9640845
853,2026-05-11 16:08:40.528731,0.33977592,0.23519666,-0.6455255,0.50991976,-0.1553125,-1.6018413
854,2026-05-11 16:08:40.531409,0.33977592,0.23519666,-0.6455255,0.50991976,-0.1553125,-1.6018413
855,2026-05-11 16:08:40.534533,0.33977592,0.23519666,-0.6455255,0.50991976,-0.1553125,-1.6018413
856,2026-05-11 16:08:40.537303,0.33977592,0.23519666,-0.6455255,0.06612616,-0.30207285,-1.2970196
857,2026-05-11 16:08:40.539895,0.33977592,0.23519666,-0.6455255,0.06612616,-0.30207285,-1.2970196
858,2026-05-11 16:08:40.542793,0.33977592,0.23519666,-0.6455255,0.06612616,-0.30207285,-1.2970196
859,2026-05-11 16:08:40.545525,0.2280621,0.2762356,-0.6565627,0.06612616,-0.30207285,-1.2970196
860,2026-05-11 16:08:40.548380,0.2280621,0.2762356,-0.6565627,0.06612616,-0.30207285,-1.2970196
861,2026-05-11 16:08:40.551640,0.16848545,0.42191488,-0.45923412,-0.31963524,-0.36041048,-1.0635164
862,2026-05-11 16:08:40.554431,0.16848545,0.42191488,-0.45923412,-0.31963524,-0.36041048,-1.0635164
863,2026-05-11 16:08:40.557113,0.16848545,0.42191488,-0.45923412,-0.31963524,-0.36041048,-1.0635164
864,2026-05-11 16:08:40.559899,0.16848545,0.42191488,-0.45923412,-0.31963524,-0.36041048,-1.0635164
865,2026-05-11 16:08:40.562747,0.16848545,0.42191488,-0.45923412,-0.31963524,-0.36041048,-1.0635164
866,2026-05-11 16:08:40.565495,0.16848545,0.42191488,-0.45923412,-0.31963524,-0.36041048,-1.0635164
867,2026-05-11 16:08:40.568618,0.16848545,0.42191488,-0.45923412,-0.31963524,-0.36041048,-1.0635164
868,2026-05-11 16:08:40.571406,0.37477797,0.5680819,-0.015488708,-0.302531,-0.22342396,-1.0622946
869,2026-05-11 16:08:40.574064,0.37477797,0.5680819,-0.015488708,-0.302531,-0.22342396,-1.0622946
870,2026-05-11 16:08:40.576813,0.37477797,0.5680819,-0.015488708,-0.302531,-0.22342396,-1.0622946
871,2026-05-11 16:08:40.579426,0.37477797,0.5680819,-0.015488708,-0.302531,-0.22342396,-1.0622946
872,2026-05-11 16:08:40.582087,0.37477797,0.5680819,-0.015488708,-0.302531,-0.22342396,-1.0622946
873,2026-05-11 16:08:40.585328,0.28062615,0.5549104,-0.027562585,0.6730208,0.13423763,-1.5884024
874,2026-05-11 16:08:40.588147,0.28062615,0.5549104,-0.027562585,0.6730208,0.13423763,-1.5884024
875,2026-05-11 16:08:40.590783,0.28062615,0.5549104,-0.027562585,0.6730208,0.13423763,-1.5884024
876,2026-05-11 16:08:40.593336,0.28062615,0.5549104,-0.027562585,0.6730208,0.13423763,-1.5884024
877,2026-05-11 16:08:40.596030,0.28062615,0.5549104,-0.027562585,0.6730208,0.13423763,-1.5884024
878,2026-05-11 16:08:40.598603,0.28062615,0.5549104,-0.027562585,0.6730208,0.13423763,-1.5884024
879,2026-05-11 16:08:40.601816,-0.33349505,0.40843847,-0.33642206,1.5909985,0.20723604,-1.4442382
880,2026-05-11 16:08:40.604448,-0.33349505,0.40843847,-0.33642206,1.5909985,0.20723604,-1.4442382
881,2026-05-11 16:08:40.607301,-0.64095205,0.41252404,-0.4926507,1.9031507,0.12308934,-0.86559606
882,2026-05-11 16:08:40.610026,-0.64095205,0.41252404,-0.4926507,1.9031507,0.12308934,-0.86559606
883,2026-05-11 16:08:40.612616,-0.64095205,0.41252404,-0.4926507,1.9031507,0.12308934,-0.86559606
884,2026-05-11 16:08:40.615402,-0.64095205,0.41252404,-0.4926507,1.9031507,0.12308934,-0.86559606
885,2026-05-11 16:08:40.618390,-0.64095205,0.41252404,-0.4926507,1.9943223,0.04428773,-0.13500121
886,2026-05-11 16:08:40.621093,-0.64095205,0.41252404,-0.4926507,1.9943223,0.04428773,-0.13500121
887,2026-05-11 16:08:40.623958,-0.64095205,0.41252404,-0.4926507,1.9943223,0.04428773,-0.13500121
888,2026-05-11 16:08:40.626746,-0.5560691,0.55856913,-0.96517825,1.8606955,-0.12782355,0.35811976
889,2026-05-11 16:08:40.629531,-0.5560691,0.55856913,-0.96517825,1.8606955,-0.12782355,0.35811976
890,2026-05-11 16:08:40.632142,-0.5560691,0.55856913,-0.96517825,1.8606955,-0.12782355,0.35811976
891,2026-05-11 16:08:40.635115,-0.5560691,0.55856913,-0.96517825,1.8606955,-0.12782355,0.35811976
892,2026-05-11 16:08:40.637816,-0.5560691,0.55856913,-0.96517825,1.8606955,-0.12782355,0.35811976
893,2026-05-11 16:08:40.640458,-0.5560691,0.55856913,-0.96517825,1.8606955,-0.12782355,0.35811976
894,2026-05-11 16:08:40.643045,-0.5560691,0.55856913,-0.96517825,1.8606955,-0.12782355,0.35811976
895,2026-05-11 16:08:40.645605,-0.5560691,0.55856913,-0.96517825,1.8606955,-0.12782355,0.35811976
896,2026-05-11 16:08:40.648406,-0.5560691,0.55856913,-0.96517825,1.8606955,-0.12782355,0.35811976
897,2026-05-11 16:08:40.651678,-0.5560691,0.55856913,-0.96517825,1.8606955,-0.12782355,0.35811976
898,2026-05-11 16:08:40.654502,-0.5560691,0.55856913,-0.96517825,1.8606955,-0.12782355,0.35811976
899,2026-05-11 16:08:40.657178,-0.5560691,0.55856913,-0.96517825,1.8606955,-0.12782355,0.35811976
900,2026-05-11 16:08:40.659793,-0.5560691,0.55856913,-0.96517825,1.8606955,-0.12782355,0.35811976
901,2026-05-11 16:08:40.662595,-0.5560691,0.55856913,-0.96517825,1.8606955,-0.12782355,0.35811976
902,2026-05-11 16:08:40.665224,-0.5560691,0.55856913,-0.96517825,1.8606955,-0.12782355,0.35811976
903,2026-05-11 16:08:40.668242,-0.44087937,0.7685814,-1.2163515,1.6052011,-0.59696805,0.6936375
904,2026-05-11 16:08:40.671114,-0.44087937,0.7685814,-1.2163515,1.6052011,-0.59696805,0.6936375
905,2026-05-11 16:08:40.673729,-0.44087937,0.7685814,-1.2163515,1.6052011,-0.59696805,0.6936375
906,2026-05-11 16:08:40.676309,-0.44087937,0.7685814,-1.2163515,1.6052011,-0.59696805,0.6936375
907,2026-05-11 16:08:40.679037,-0.44087937,0.7685814,-1.2163515,1.6052011,-0.59696805,0.6936375
908,2026-05-11 16:08:40.681616,-0.44087937,0.7685814,-1.2163515,1.6052011,-0.59696805,0.6936375
909,2026-05-11 16:08:40.684609,-0.44087937,0.7685814,-1.2163515,1.6052011,-0.59696805,0.6936375
910,2026-05-11 16:08:40.687271,-0.44087937,0.7685814,-1.2163515,1.6052011,-0.59696805,0.6936375
911,2026-05-11 16:08:40.689822,-0.44087937,0.7685814,-1.2163515,1.6052011,-0.59696805,0.6936375
912,2026-05-11 16:08:40.692619,-0.44087937,0.7685814,-1.2163515,1.6052011,-0.59696805,0.6936375
913,2026-05-11 16:08:40.695376,-0.44087937,0.7685814,-1.2163515,1.6052011,-0.59696805,0.6936375
914,2026-05-11 16:08:40.698201,-0.44087937,0.7685814,-1.2163515,1.6052011,-0.59696805,0.6936375
915,2026-05-11 16:08:40.701161,-0.44087937,0.7685814,-1.2163515,1.6052011,-0.59696805,0.6936375
916,2026-05-11 16:08:40.704007,-0.44087937,0.7685814,-1.2163515,1.6052011,-0.59696805,0.6936375
917,2026-05-11 16:08:40.706615,-0.44087937,0.7685814,-1.2163515,1.6052011,-0.59696805,0.6936375
918,2026-05-11 16:08:40.709201,-0.44087937,0.7685814,-1.2163515,1.6052011,-0.59696805,0.6936375
919,2026-05-11 16:08:40.712012,-0.44087937,0.7685814,-1.2163515,1.6052011,-0.59696805,0.6936375
920,2026-05-11 16:08:40.714719,-0.44087937,0.7685814,-1.2163515,1.6052011,-0.59696805,0.6936375
921,2026-05-11 16:08:40.717782,-0.44087937,0.7685814,-1.2163515,1.2476922,-1.0395399,0.9818132
922,2026-05-11 16:08:40.720572,-0.44087937,0.7685814,-1.2163515,1.2476922,-1.0395399,0.9818132
923,2026-05-11 16:08:40.723353,-0.44087937,0.7685814,-1.2163515,1.2476922,-1.0395399,0.9818132
924,2026-05-11 16:08:40.725983,-0.44087937,0.7685814,-1.2163515,1.2476922,-1.0395399,0.9818132
925,2026-05-11 16:08:40.728923,-0.24477036,0.9183462,-1.4405719,-1.3416128,-0.18860464,1.5378532
926,2026-05-11 16:08:40.731691,-0.24477036,0.9183462,-1.4405719,-1.3416128,-0.18860464,1.5378532
927,2026-05-11 16:08:40.734732,-0.16915621,0.9471894,-1.4392303,-1.3416128,-0.18860464,1.5378532
928,2026-05-11 16:08:40.737533,-0.16915621,0.9471894,-1.4392303,-1.3416128,-0.18860464,1.5378532
929,2026-05-11 16:08:40.740326,-0.16915621,0.9471894,-1.4392303,-1.3416128,-0.18860464,1.5378532
930,2026-05-11 16:08:40.742946,-0.16915621,0.9471894,-1.4392303,-1.3416128,-0.18860464,1.5378532
931,2026-05-11 16:08:40.745669,-0.16915621,0.9471894,-1.4392303,-1.3416128,-0.18860464,1.5378532
932,2026-05-11 16:08:40.748295,-0.16915621,0.9471894,-1.4392303,-1.3416128,-0.18860464,1.5378532
933,2026-05-11 16:08:40.751169,-0.16915621,0.9471894,-1.4392303,-1.3416128,-0.18860464,1.5378532
934,2026-05-11 16:08:40.754178,-0.16915621,0.9471894,-1.4392303,-1.3416128,-0.18860464,1.5378532
935,2026-05-11 16:08:40.757098,-0.16915621,0.9471894,-1.4392303,-2.7527115,0.5626069,1.4700472
936,2026-05-11 16:08:40.759710,-0.16915621,0.9471894,-1.4392303,-2.7527115,0.5626069,1.4700472
937,2026-05-11 16:08:40.762407,-0.16915621,0.9471894,-1.4392303,-2.7527115,0.5626069,1.4700472
938,2026-05-11 16:08:40.764969,-0.16915621,0.9471894,-1.4392303,-2.7527115,0.5626069,1.4700472
939,2026-05-11 16:08:40.767768,-0.16915621,0.9471894,-1.4392303,-2.7527115,0.5626069,1.4700472
940,2026-05-11 16:08:40.771148,-0.17403455,0.9149315,-1.2197663,-3.9188533,0.9083566,1.4259121
941,2026-05-11 16:08:40.773920,-0.17403455,0.9149315,-1.2197663,-3.9188533,0.9083566,1.4259121
942,2026-05-11 16:08:40.776545,-0.17403455,0.9149315,-1.2197663,-3.9188533,0.9083566,1.4259121
943,2026-05-11 16:08:40.779144,-0.17403455,0.9149315,-1.2197663,-3.9188533,0.9083566,1.4259121
944,2026-05-11 16:08:40.781876,-0.17403455,0.9149315,-1.2197663,-3.9188533,0.9083566,1.4259121
945,2026-05-11 16:08:40.784969,-0.17403455,0.9149315,-1.2197663,-3.9188533,0.9083566,1.4259121
946,2026-05-11 16:08:40.787702,-0.17403455,0.9149315,-1.2197663,-3.9188533,0.9083566,1.4259121
947,2026-05-11 16:08:40.790308,-0.17403455,0.9149315,-1.2197663,-3.9188533,0.9083566,1.4259121
948,2026-05-11 16:08:40.793223,-0.17403455,0.9149315,-1.2197663,-3.9188533,0.9083566,1.4259121
949,2026-05-11 16:08:40.795925,-0.17403455,0.9149315,-1.2197663,-3.9188533,0.9083566,1.4259121
950,2026-05-11 16:08:40.798613,-0.17403455,0.9149315,-1.2197663,-3.9188533,0.9083566,1.4259121
951,2026-05-11 16:08:40.801487,-0.17403455,0.9149315,-1.2197663,-3.9188533,0.9083566,1.4259121
952,2026-05-11 16:08:40.804284,-0.17403455,0.9149315,-1.2197663,-3.9188533,0.9083566,1.4259121
953,2026-05-11 16:08:40.806979,-0.17403455,0.9149315,-1.2197663,-3.9188533,0.9083566,1.4259121
954,2026-05-11 16:08:40.809558,-0.17403455,0.9149315,-1.2197663,-3.9188533,0.9083566,1.4259121
955,2026-05-11 16:08:40.812367,-0.33495858,0.85273266,-1.0564641,-3.9188533,0.9083566,1.4259121
956,2026-05-11 16:08:40.814977,-0.33495858,0.85273266,-1.0564641,-3.9188533,0.9083566,1.4259121
957,2026-05-11 16:08:40.818157,-0.33495858,0.85273266,-1.0564641,-3.9188533,0.9083566,1.4259121
958,2026-05-11 16:08:40.821006,-0.33495858,0.85273266,-1.0564641,-3.9188533,0.9083566,1.4259121
959,2026-05-11 16:08:40.823653,-0.33495858,0.85273266,-1.0564641,-3.9188533,0.9083566,1.4259121
960,2026-05-11 16:08:40.826252,-0.33495858,0.85273266,-1.0564641,-3.9188533,0.9083566,1.4259121
961,2026-05-11 16:08:40.829021,-0.33495858,0.85273266,-1.0564641,-3.9188533,0.9083566,1.4259121
962,2026-05-11 16:08:40.831628,-0.33495858,0.85273266,-1.0564641,-3.9188533,0.9083566,1.4259121
963,2026-05-11 16:08:40.834738,-0.33495858,0.85273266,-1.0564641,-3.9188533,0.9083566,1.4259121
964,2026-05-11 16:08:40.837444,-0.33495858,0.85273266,-1.0564641,-3.9188533,0.9083566,1.4259121
965,2026-05-11 16:08:40.840044,-0.33495858,0.85273266,-1.0564641,-3.9188533,0.9083566,1.4259121
966,2026-05-11 16:08:40.842924,-0.4438674,0.8355975,-1.0121932,-4.084245,0.54611355,1.4837917
967,2026-05-11 16:08:40.845833,-0.4438674,0.8355975,-1.0121932,-4.084245,0.54611355,1.4837917
968,2026-05-11 16:08:40.848491,-0.4438674,0.8355975,-1.0121932,-4.084245,0.54611355,1.4837917
969,2026-05-11 16:08:40.851579,-0.4438674,0.8355975,-1.0121932,-4.1584654,-0.09743301,1.6730071
970,2026-05-11 16:08:40.854387,-0.54051936,0.7954732,-0.9663978,-4.1584654,-0.09743301,1.6730071
971,2026-05-11 16:08:40.857327,-0.54051936,0.7954732,-0.9663978,-4.1584654,-0.09743301,1.6730071
972,2026-05-11 16:08:40.860251,-0.54051936,0.7954732,-0.9663978,-4.1584654,-0.09743301,1.6730071
973,2026-05-11 16:08:40.863000,-0.54051936,0.7954732,-0.9663978,-4.1584654,-0.09743301,1.6730071
974,2026-05-11 16:08:40.865680,-0.54051936,0.7954732,-0.9663978,-4.1584654,-0.09743301,1.6730071
975,2026-05-11 16:08:40.868602,-0.54051936,0.7954732,-0.9663978,-4.1584654,-0.09743301,1.6730071
976,2026-05-11 16:08:40.871366,-0.54051936,0.7954732,-0.9663978,-4.1584654,-0.09743301,1.6730071
977,2026-05-11 16:08:40.874070,-0.54051936,0.7954732,-0.9663978,-4.1584654,-0.09743301,1.6730071
978,2026-05-11 16:08:40.876948,-0.54051936,0.7954732,-0.9663978,-4.1584654,-0.09743301,1.6730071
979,2026-05-11 16:08:40.879668,-0.518201,0.7839482,-0.9298713,-4.1584654,-0.09743301,1.6730071
980,2026-05-11 16:08:40.882600,-0.41929275,0.80419326,-0.8329144,-4.460538,-0.68019843,2.0659463
981,2026-05-11 16:08:40.885759,-0.41929275,0.80419326,-0.8329144,-4.460538,-0.68019843,2.0659463
982,2026-05-11 16:08:40.888431,-0.41929275,0.80419326,-0.8329144,-4.460538,-0.68019843,2.0659463
983,2026-05-11 16:08:40.891020,-0.41929275,0.80419326,-0.8329144,-4.460538,-0.68019843,2.0659463
984,2026-05-11 16:08:40.893902,-0.41929275,0.80419326,-0.8329144,-4.460538,-0.68019843,2.0659463
985,2026-05-11 16:08:40.896731,-0.41929275,0.80419326,-0.8329144,-4.460538,-0.68019843,2.0659463
986,2026-05-11 16:08:40.899617,-0.41929275,0.80419326,-0.8329144,-4.460538,-0.68019843,2.0659463
987,2026-05-11 16:08:40.902411,-0.41929275,0.80419326,-0.8329144,-4.460538,-0.68019843,2.0659463
988,2026-05-11 16:08:40.905023,-0.41929275,0.80419326,-0.8329144,-4.460538,-0.68019843,2.0659463
989,2026-05-11 16:08:40.907631,-0.41929275,0.80419326,-0.8329144,-4.460538,-0.68019843,2.0659463
990,2026-05-11 16:08:40.910234,-0.41929275,0.80419326,-0.8329144,-4.460538,-0.68019843,2.0659463
991,2026-05-11 16:08:40.912797,-0.41929275,0.80419326,-0.8329144,-4.460538,-0.68019843,2.0659463
992,2026-05-11 16:08:40.915496,-0.41929275,0.80419326,-0.8329144,-4.460538,-0.68019843,2.0659463
993,2026-05-11 16:08:40.918713,-0.41929275,0.80419326,-0.8329144,-4.543921,-0.46944994,2.0474675
994,2026-05-11 16:08:40.921452,-0.41929275,0.80419326,-0.8329144,-4.543921,-0.46944994,2.0474675
995,2026-05-11 16:08:40.924269,-0.41929275,0.80419326,-0.8329144,-4.543921,-0.46944994,2.0474675
996,2026-05-11 16:08:40.926992,-0.41929275,0.80419326,-0.8329144,-4.543921,-0.46944994,2.0474675
997,2026-05-11 16:08:40.929779,-0.41929275,0.80419326,-0.8329144,-4.543921,-0.46944994,2.0474675
998,2026-05-11 16:08:40.932867,-0.41929275,0.80419326,-0.8329144,-4.543921,-0.46944994,2.0474675
999,2026-05-11 16:08:40.935953,-0.41929275,0.80419326,-0.8329144,-4.543921,-0.46944994,2.0474675
1000,2026-05-11 16:08:40.938563,-0.41929275,0.80419326,-0.8329144,-4.543921,-0.46944994,2.0474675
1001,2026-05-11 16:08:40.941295,-0.41929275,0.80419326,-0.8329144,-4.543921,-0.46944994,2.0474675
1002,2026-05-11 16:08:40.943904,-0.41929275,0.80419326,-0.8329144,-4.543921,-0.46944994,2.0474675
1003,2026-05-11 16:08:40.946680,-0.41929275,0.80419326,-0.8329144,-4.543921,-0.46944994,2.0474675
1004,2026-05-11 16:08:40.949848,-0.41929275,0.80419326,-0.8329144,-4.543921,-0.46944994,2.0474675
1005,2026-05-11 16:08:40.952746,-0.29282197,0.82736534,-0.68003964,-4.543921,-0.46944994,2.0474675
1006,2026-05-11 16:08:40.955480,-0.29282197,0.82736534,-0.68003964,-4.543921,-0.46944994,2.0474675
1007,2026-05-11 16:08:40.958137,-0.29282197,0.82736534,-0.68003964,-4.543921,-0.46944994,2.0474675
1008,2026-05-11 16:08:40.960727,-0.29282197,0.82736534,-0.68003964,-4.543921,-0.46944994,2.0474675
1009,2026-05-11 16:08:40.963490,-0.29282197,0.82736534,-0.68003964,-4.543921,-0.46944994,2.0474675
1010,2026-05-11 16:08:40.966414,-0.29282197,0.82736534,-0.68003964,-4.543921,-0.46944994,2.0474675
1011,2026-05-11 16:08:40.969371,-0.29282197,0.82736534,-0.68003964,-4.543921,-0.46944994,2.0474675
1012,2026-05-11 16:08:40.972060,-0.29282197,0.82736534,-0.68003964,-4.543921,-0.46944994,2.0474675
1013,2026-05-11 16:08:40.974654,-0.29282197,0.82736534,-0.68003964,-4.543921,-0.46944994,2.0474675
1014,2026-05-11 16:08:40.977660,-0.29282197,0.82736534,-0.68003964,-4.543921,-0.46944994,2.0474675
1015,2026-05-11 16:08:40.980269,-0.29282197,0.82736534,-0.68003964,-4.543921,-0.46944994,2.0474675
1016,2026-05-11 16:08:40.982963,-0.29282197,0.82736534,-0.68003964,-4.543921,-0.46944994,2.0474675
1017,2026-05-11 16:08:40.986067,-0.29282197,0.82736534,-0.68003964,-4.4231224,-0.09239337,1.8897116
1018,2026-05-11 16:08:40.988852,-0.283919,0.8846858,-0.5323481,-4.4231224,-0.09239337,1.8897116
1019,2026-05-11 16:08:40.991550,-0.283919,0.8846858,-0.5323481,-4.4231224,-0.09239337,1.8897116
1020,2026-05-11 16:08:40.994164,-0.283919,0.8846858,-0.5323481,-4.4231224,-0.09239337,1.8897116
1021,2026-05-11 16:08:40.996796,-0.283919,0.8846858,-0.5323481,-4.4231224,-0.09239337,1.8897116
1022,2026-05-11 16:08:40.999479,-0.283919,0.8846858,-0.5323481,-4.4231224,-0.09239337,1.8897116
1023,2026-05-11 16:08:41.004162,-0.283919,0.8846858,-0.5323481,-4.4231224,-0.09239337,1.8897116
1024,2026-05-11 16:08:41.022210,-0.283919,0.8846858,-0.5323481,-4.4231224,-0.09239337,1.8897116
1025,2026-05-11 16:08:41.032252,-0.283919,0.8846858,-0.5323481,-4.4231224,-0.09239337,1.8897116
1026,2026-05-11 16:08:41.040418,-0.283919,0.8846858,-0.5323481,-4.4231224,-0.09239337,1.8897116
1027,2026-05-11 16:08:41.044243,-0.32367742,0.96792233,-0.44947743,-4.0193405,0.05222898,1.7253889
1028,2026-05-11 16:08:41.047046,-0.32367742,0.96792233,-0.44947743,-4.0193405,0.05222898,1.7253889
1029,2026-05-11 16:08:41.049723,-0.32367742,0.96792233,-0.44947743,-4.0193405,0.05222898,1.7253889
1030,2026-05-11 16:08:41.052958,-0.32367742,0.96792233,-0.44947743,-4.0193405,0.05222898,1.7253889
1031,2026-05-11 16:08:41.055714,-0.3609357,1.0190839,-0.38624203,-4.0193405,0.05222898,1.7253889
1032,2026-05-11 16:08:41.058567,-0.3609357,1.0190839,-0.38624203,-4.0193405,0.05222898,1.7253889
1033,2026-05-11 16:08:41.061352,-0.3609357,1.0190839,-0.38624203,-4.0193405,0.05222898,1.7253889
1034,2026-05-11 16:08:41.063936,-0.3609357,1.0190839,-0.38624203,-4.0193405,0.05222898,1.7253889
1035,2026-05-11 16:08:41.067188,-0.41630477,1.1463474,-0.31745756,-3.4680347,-0.040011674,1.6146696
1036,2026-05-11 16:08:41.070168,-0.41630477,1.1463474,-0.31745756,-3.4680347,-0.040011674,1.6146696
1037,2026-05-11 16:08:41.072831,-0.41630477,1.1463474,-0.31745756,-3.4680347,-0.040011674,1.6146696
1038,2026-05-11 16:08:41.075418,-0.41630477,1.1463474,-0.31745756,-3.4680347,-0.040011674,1.6146696
1039,2026-05-11 16:08:41.078392,-0.41630477,1.1463474,-0.31745756,-2.352442,-0.236863,1.5517504
1040,2026-05-11 16:08:41.081078,-0.41630477,1.1463474,-0.31745756,-2.352442,-0.236863,1.5517504
1041,2026-05-11 16:08:41.084158,-0.41630477,1.1463474,-0.31745756,-2.352442,-0.236863,1.5517504
1042,2026-05-11 16:08:41.086958,-0.41630477,1.1463474,-0.31745756,-1.3419182,-0.30650163,1.4989105
1043,2026-05-11 16:08:41.089714,-0.33422682,1.2794039,-0.38057098,-1.3419182,-0.30650163,1.4989105
1044,2026-05-11 16:08:41.092315,-0.33422682,1.2794039,-0.38057098,-1.3419182,-0.30650163,1.4989105
1045,2026-05-11 16:08:41.095053,-0.33422682,1.2794039,-0.38057098,-1.3419182,-0.30650163,1.4989105
1046,2026-05-11 16:08:41.097667,-0.33422682,1.2794039,-0.38057098,-1.3419182,-0.30650163,1.4989105
1047,2026-05-11 16:08:41.100796,-0.33422682,1.2794039,-0.38057098,-1.3419182,-0.30650163,1.4989105
1048,2026-05-11 16:08:41.103521,-0.33422682,1.2794039,-0.38057098,-1.3419182,-0.30650163,1.4989105
1049,2026-05-11 16:08:41.106159,-0.33422682,1.2794039,-0.38057098,-1.3419182,-0.30650163,1.4989105
1050,2026-05-11 16:08:41.108794,-0.33422682,1.2794039,-0.38057098,-1.3419182,-0.30650163,1.4989105
1051,2026-05-11 16:08:41.111515,-0.33422682,1.2794039,-0.38057098,-1.3419182,-0.30650163,1.4989105
1052,2026-05-11 16:08:41.114263,-0.33422682,1.2794039,-0.38057098,-1.3419182,-0.30650163,1.4989105
1053,2026-05-11 16:08:41.117200,-0.33422682,1.2794039,-0.38057098,-1.3419182,-0.30650163,1.4989105
1054,2026-05-11 16:08:41.120024,-0.33422682,1.2794039,-0.38057098,-1.3419182,-0.30650163,1.4989105
1055,2026-05-11 16:08:41.122608,-0.33422682,1.2794039,-0.38057098,-1.3419182,-0.30650163,1.4989105
1056,2026-05-11 16:08:41.125408,-0.33422682,1.2794039,-0.38057098,-1.3419182,-0.30650163,1.4989105
1057,2026-05-11 16:08:41.128256,-0.30568856,1.4273394,-0.5275307,-1.3419182,-0.30650163,1.4989105
1058,2026-05-11 16:08:41.130992,-0.30568856,1.4273394,-0.5275307,-1.3419182,-0.30650163,1.4989105
1059,2026-05-11 16:08:41.133995,-0.30568856,1.4273394,-0.5275307,-1.3419182,-0.30650163,1.4989105
1060,2026-05-11 16:08:41.136800,-0.30568856,1.4273394,-0.5275307,-0.1563815,-0.29260445,1.2351695
1061,2026-05-11 16:08:41.139419,-0.30568856,1.4273394,-0.5275307,-0.1563815,-0.29260445,1.2351695
1062,2026-05-11 16:08:41.142168,-0.30568856,1.4273394,-0.5275307,-0.1563815,-0.29260445,1.2351695
1063,2026-05-11 16:08:41.144876,-0.30568856,1.4273394,-0.5275307,-0.1563815,-0.29260445,1.2351695
1064,2026-05-11 16:08:41.147752,-0.30568856,1.4273394,-0.5275307,-0.1563815,-0.29260445,1.2351695
1065,2026-05-11 16:08:41.150821,-0.30568856,1.4273394,-0.5275307,-0.1563815,-0.29260445,1.2351695
1066,2026-05-11 16:08:41.153771,-0.32940948,1.4853915,-0.6346102,-0.1563815,-0.29260445,1.2351695
1067,2026-05-11 16:08:41.156505,-0.32940948,1.4853915,-0.6346102,-0.1563815,-0.29260445,1.2351695
1068,2026-05-11 16:08:41.159239,-0.32940948,1.4853915,-0.6346102,-0.1563815,-0.29260445,1.2351695
1069,2026-05-11 16:08:41.161911,-0.32940948,1.4853915,-0.6346102,-0.1563815,-0.29260445,1.2351695
1070,2026-05-11 16:08:41.164704,-0.32940948,1.4853915,-0.6346102,-0.1563815,-0.29260445,1.2351695
1071,2026-05-11 16:08:41.167598,-0.32940948,1.4853915,-0.6346102,-0.1563815,-0.29260445,1.2351695
1072,2026-05-11 16:08:41.170354,-0.32940948,1.4853915,-0.6346102,0.3744604,-0.27855456,1.0534371
1073,2026-05-11 16:08:41.173055,-0.32940948,1.4853915,-0.6346102,0.3744604,-0.27855456,1.0534371
1074,2026-05-11 16:08:41.175611,-0.32940948,1.4853915,-0.6346102,0.3744604,-0.27855456,1.0534371
1075,2026-05-11 16:08:41.178211,-0.32940948,1.4853915,-0.6346102,0.3744604,-0.27855456,1.0534371
1076,2026-05-11 16:08:41.180775,-0.32940948,1.4853915,-0.6346102,0.3744604,-0.27855456,1.0534371
1077,2026-05-11 16:08:41.183868,-0.32940948,1.4853915,-0.6346102,0.3744604,-0.27855456,1.0534371
1078,2026-05-11 16:08:41.186650,-0.32940948,1.4853915,-0.6346102,0.3744604,-0.27855456,1.0534371
1079,2026-05-11 16:08:41.189190,-0.32940948,1.4853915,-0.6346102,0.3744604,-0.27855456,1.0534371
1080,2026-05-11 16:08:41.191917,-0.32940948,1.4853915,-0.6346102,0.3744604,-0.27855456,1.0534371
1081,2026-05-11 16:08:41.194553,-0.32940948,1.4853915,-0.6346102,0.3744604,-0.27855456,1.0534371
1082,2026-05-11 16:08:41.197268,-0.32940948,1.4853915,-0.6346102,0.3744604,-0.27855456,1.0534371
1083,2026-05-11 16:08:41.200307,-0.32940948,1.4853915,-0.6346102,0.3744604,-0.27855456,1.0534371
1084,2026-05-11 16:08:41.203171,-0.35349622,1.5652742,-0.8229139,0.3744604,-0.27855456,1.0534371
1085,2026-05-11 16:08:41.205702,-0.35349622,1.5652742,-0.8229139,0.3744604,-0.27855456,1.0534371
1086,2026-05-11 16:08:41.208288,-0.35349622,1.5652742,-0.8229139,0.3744604,-0.27855456,1.0534371
1087,2026-05-11 16:08:41.210837,-0.35349622,1.5652742,-0.8229139,0.3744604,-0.27855456,1.0534371
1088,2026-05-11 16:08:41.213569,-0.35349622,1.5652742,-0.8229139,0.3744604,-0.27855456,1.0534371
1089,2026-05-11 16:08:41.216267,-0.35349622,1.5652742,-0.8229139,0.3744604,-0.27855456,1.0534371
1090,2026-05-11 16:08:41.219388,-0.35349622,1.5652742,-0.8229139,0.3744604,-0.27855456,1.0534371
1091,2026-05-11 16:08:41.222127,-0.35349622,1.5652742,-0.8229139,0.3744604,-0.27855456,1.0534371
1092,2026-05-11 16:08:41.224786,-0.35349622,1.5652742,-0.8229139,0.3744604,-0.27855456,1.0534371
1093,2026-05-11 16:08:41.227409,-0.35349622,1.5652742,-0.8229139,0.3744604,-0.27855456,1.0534371
1094,2026-05-11 16:08:41.230158,-0.35349622,1.5652742,-0.8229139,0.3744604,-0.27855456,1.0534371
1095,2026-05-11 16:08:41.233433,-0.35349622,1.5652742,-0.8229139,0.3744604,-0.27855456,1.0534371
1096,2026-05-11 16:08:41.236303,-0.35349622,1.5652742,-0.8229139,0.3744604,-0.27855456,1.0534371
1097,2026-05-11 16:08:41.238906,-0.35349622,1.5652742,-0.8229139,0.3744604,-0.27855456,1.0534371
1098,2026-05-11 16:08:41.241686,-0.35349622,1.5652742,-0.8229139,1.1488848,-0.30695978,0.72311175
1099,2026-05-11 16:08:41.244275,-0.35349622,1.5652742,-0.8229139,1.1488848,-0.30695978,0.72311175
1100,2026-05-11 16:08:41.246922,-0.35349622,1.5652742,-0.8229139,1.1488848,-0.30695978,0.72311175
1101,2026-05-11 16:08:41.249597,-0.35349622,1.5652742,-0.8229139,1.1488848,-0.30695978,0.72311175
1102,2026-05-11 16:08:41.253231,-0.35349622,1.5652742,-0.8229139,1.1488848,-0.30695978,0.72311175
1103,2026-05-11 16:08:41.256343,-0.35349622,1.5652742,-0.8229139,1.5532776,-0.39599338,0.49541172
1104,2026-05-11 16:08:41.259179,-0.3638627,1.5879585,-0.9582266,1.5532776,-0.39599338,0.49541172
1105,2026-05-11 16:08:41.261836,-0.3638627,1.5879585,-0.9582266,1.5532776,-0.39599338,0.49541172
1106,2026-05-11 16:08:41.264544,-0.3638627,1.5879585,-0.9582266,1.5532776,-0.39599338,0.49541172
1107,2026-05-11 16:08:41.267231,-0.3638627,1.5879585,-0.9582266,1.5532776,-0.39599338,0.49541172
1108,2026-05-11 16:08:41.270499,-0.3638627,1.5879585,-0.9582266,1.5532776,-0.39599338,0.49541172
1109,2026-05-11 16:08:41.273391,-0.3638627,1.5879585,-0.9582266,1.5532776,-0.39599338,0.49541172
1110,2026-05-11 16:08:41.276006,-0.3638627,1.5879585,-0.9582266,1.5532776,-0.39599338,0.49541172
1111,2026-05-11 16:08:41.278589,-0.3638627,1.5879585,-0.9582266,1.5532776,-0.39599338,0.49541172
1112,2026-05-11 16:08:41.281267,-0.3638627,1.5879585,-0.9582266,1.5532776,-0.39599338,0.49541172
1113,2026-05-11 16:08:41.284255,-0.3638627,1.5879585,-0.9582266,1.5532776,-0.39599338,0.49541172
1114,2026-05-11 16:08:41.287007,-0.3638627,1.5879585,-0.9582266,1.5532776,-0.39599338,0.49541172
1115,2026-05-11 16:08:41.289734,-0.3638627,1.5879585,-0.9582266,1.5532776,-0.39599338,0.49541172
1116,2026-05-11 16:08:41.292418,-0.3638627,1.5879585,-0.9582266,1.5532776,-0.39599338,0.49541172
1117,2026-05-11 16:08:41.295064,-0.3638627,1.5879585,-0.9582266,1.5532776,-0.39599338,0.49541172
1118,2026-05-11 16:08:41.297783,-0.43197644,1.6149722,-1.2515364,2.09145,-0.61269784,0.013439035
1119,2026-05-11 16:08:41.300904,-0.43197644,1.6149722,-1.2515364,2.09145,-0.61269784,0.013439035
1120,2026-05-11 16:08:41.303602,-0.43197644,1.6149722,-1.2515364,2.09145,-0.61269784,0.013439035
1121,2026-05-11 16:08:41.306217,-0.43197644,1.6149722,-1.2515364,2.09145,-0.61269784,0.013439035
1122,2026-05-11 16:08:41.308821,-0.43197644,1.6149722,-1.2515364,2.09145,-0.61269784,0.013439035
1123,2026-05-11 16:08:41.311405,-0.43197644,1.6149722,-1.2515364,2.09145,-0.61269784,0.013439035
1124,2026-05-11 16:08:41.313992,-0.43197644,1.6149722,-1.2515364,2.09145,-0.61269784,0.013439035
1125,2026-05-11 16:08:41.316888,-0.43197644,1.6149722,-1.2515364,2.09145,-0.61269784,0.013439035
1126,2026-05-11 16:08:41.319636,-0.43197644,1.6149722,-1.2515364,2.09145,-0.61269784,0.013439035
1127,2026-05-11 16:08:41.322417,-0.43197644,1.6149722,-1.2515364,2.09145,-0.61269784,0.013439035
1128,2026-05-11 16:08:41.325083,-0.43197644,1.6149722,-1.2515364,2.09145,-0.61269784,0.013439035
1129,2026-05-11 16:08:41.327717,-0.43197644,1.6149722,-1.2515364,2.09145,-0.61269784,0.013439035
1130,2026-05-11 16:08:41.330667,-0.409658,1.5832021,-1.4131312,2.1682663,-0.6414085,-0.26419923
1131,2026-05-11 16:08:41.333585,-0.409658,1.5832021,-1.4131312,2.1682663,-0.6414085,-0.26419923
1132,2026-05-11 16:08:41.336232,-0.409658,1.5832021,-1.4131312,2.1682663,-0.6414085,-0.26419923
1133,2026-05-11 16:08:41.338982,-0.409658,1.5832021,-1.4131312,1.9139935,-0.43325618,-0.6951646
1134,2026-05-11 16:08:41.341542,-0.409658,1.5832021,-1.4131312,1.9139935,-0.43325618,-0.6951646
1135,2026-05-11 16:08:41.344322,-0.409658,1.5832021,-1.4131312,1.9139935,-0.43325618,-0.6951646
1136,2026-05-11 16:08:41.346928,-0.409658,1.5832021,-1.4131312,1.9139935,-0.43325618,-0.6951646
1137,2026-05-11 16:08:41.349620,-0.409658,1.5832021,-1.4131312,1.9139935,-0.43325618,-0.6951646
1138,2026-05-11 16:08:41.352884,-0.40788963,1.5633229,-1.5383214,1.9139935,-0.43325618,-0.6951646
1139,2026-05-11 16:08:41.355546,-0.40788963,1.5633229,-1.5383214,1.9139935,-0.43325618,-0.6951646
1140,2026-05-11 16:08:41.358178,-0.40788963,1.5633229,-1.5383214,1.9139935,-0.43325618,-0.6951646
1141,2026-05-11 16:08:41.360779,-0.40788963,1.5633229,-1.5383214,1.9139935,-0.43325618,-0.6951646
1142,2026-05-11 16:08:41.363539,-0.40788963,1.5633229,-1.5383214,1.9139935,-0.43325618,-0.6951646
1143,2026-05-11 16:08:41.366333,-0.40788963,1.5633229,-1.5383214,1.5396858,-0.18432859,-0.9314168
1144,2026-05-11 16:08:41.369629,-0.40788963,1.5633229,-1.5383214,1.5396858,-0.18432859,-0.9314168
1145,2026-05-11 16:08:41.372306,-0.40788963,1.5633229,-1.5383214,1.5396858,-0.18432859,-0.9314168
1146,2026-05-11 16:08:41.375093,-0.40788963,1.5633229,-1.5383214,1.5396858,-0.18432859,-0.9314168
1147,2026-05-11 16:08:41.377817,-0.40788963,1.5633229,-1.5383214,1.5396858,-0.18432859,-0.9314168
1148,2026-05-11 16:08:41.380538,-0.40788963,1.5633229,-1.5383214,1.5396858,-0.18432859,-0.9314168
1149,2026-05-11 16:08:41.383266,-0.40788963,1.5633229,-1.5383214,1.5396858,-0.18432859,-0.9314168
1150,2026-05-11 16:08:41.386424,-0.41697556,1.4663051,-1.6111306,1.5396858,-0.18432859,-0.9314168
1151,2026-05-11 16:08:41.389135,-0.41697556,1.4663051,-1.6111306,1.5396858,-0.18432859,-0.9314168
1152,2026-05-11 16:08:41.391795,-0.41648772,1.3835564,-1.5899708,1.0677924,0.062308256,-1.10139
1153,2026-05-11 16:08:41.394478,-0.41648772,1.3835564,-1.5899708,1.0677924,0.062308256,-1.10139
1154,2026-05-11 16:08:41.397059,-0.41648772,1.3835564,-1.5899708,1.0677924,0.062308256,-1.10139
1155,2026-05-11 16:08:41.399703,-0.41648772,1.3835564,-1.5899708,1.0677924,0.062308256,-1.10139
1156,2026-05-11 16:08:41.402845,-0.41648772,1.3835564,-1.5899708,1.0677924,0.062308256,-1.10139
1157,2026-05-11 16:08:41.405688,-0.41648772,1.3835564,-1.5899708,0.43860126,0.16584991,-1.2944235
1158,2026-05-11 16:08:41.408373,-0.41648772,1.3835564,-1.5899708,0.43860126,0.16584991,-1.2944235
1159,2026-05-11 16:08:41.411149,-0.41648772,1.3835564,-1.5899708,0.43860126,0.16584991,-1.2944235
1160,2026-05-11 16:08:41.413788,-0.38264427,1.3137962,-1.4332544,0.43860126,0.16584991,-1.2944235
1161,2026-05-11 16:08:41.416494,-0.38264427,1.3137962,-1.4332544,0.43860126,0.16584991,-1.2944235
1162,2026-05-11 16:08:41.419589,-0.38264427,1.3137962,-1.4332544,0.43860126,0.16584991,-1.2944235
1163,2026-05-11 16:08:41.422208,-0.38264427,1.3137962,-1.4332544,0.43860126,0.16584991,-1.2944235
1164,2026-05-11 16:08:41.425078,-0.38264427,1.3137962,-1.4332544,0.43860126,0.16584991,-1.2944235
1165,2026-05-11 16:08:41.427900,-0.38264427,1.3137962,-1.4332544,0.43860126,0.16584991,-1.2944235
1166,2026-05-11 16:08:41.430684,-0.38264427,1.3137962,-1.4332544,0.43860126,0.16584991,-1.2944235
1167,2026-05-11 16:08:41.433708,-0.3289826,1.2360477,-1.2014726,0.43860126,0.16584991,-1.2944235
1168,2026-05-11 16:08:41.436611,-0.3289826,1.2360477,-1.2014726,0.43860126,0.16584991,-1.2944235
1169,2026-05-11 16:08:41.439201,-0.3289826,1.2360477,-1.2014726,0.43860126,0.16584991,-1.2944235
1170,2026-05-11 16:08:41.441818,-0.3289826,1.2360477,-1.2014726,0.43860126,0.16584991,-1.2944235
1171,2026-05-11 16:08:41.444597,-0.3289826,1.2360477,-1.2014726,0.1421789,0.13072516,-1.3747523
1172,2026-05-11 16:08:41.447376,-0.3289826,1.2360477,-1.2014726,0.1421789,0.13072516,-1.3747523
1173,2026-05-11 16:08:41.450374,-0.3289826,1.2360477,-1.2014726,0.1421789,0.13072516,-1.3747523
1174,2026-05-11 16:08:41.453452,-0.3289826,1.2360477,-1.2014726,0.1421789,0.13072516,-1.3747523
1175,2026-05-11 16:08:41.456126,-0.3289826,1.2360477,-1.2014726,0.1421789,0.13072516,-1.3747523
1176,2026-05-11 16:08:41.458739,-0.3289826,1.2360477,-1.2014726,0.1421789,0.13072516,-1.3747523
1177,2026-05-11 16:08:41.461416,-0.3289826,1.2360477,-1.2014726,0.1421789,0.13072516,-1.3747523
1178,2026-05-11 16:08:41.463978,-0.3289826,1.2360477,-1.2014726,0.1421789,0.13072516,-1.3747523
1179,2026-05-11 16:08:41.466992,-0.3289826,1.2360477,-1.2014726,0.1421789,0.13072516,-1.3747523
1180,2026-05-11 16:08:41.470182,-0.3289826,1.2360477,-1.2014726,0.1421789,0.13072516,-1.3747523
1181,2026-05-11 16:08:41.473007,-0.16500962,1.1990334,-0.98036206,0.05467244,0.094225965,-1.420109
1182,2026-05-11 16:08:41.475885,-0.16500962,1.1990334,-0.98036206,0.05467244,0.094225965,-1.420109
1183,2026-05-11 16:08:41.478648,-0.03164819,1.1580554,-0.80760807,0.10751228,0.051923547,-1.6099354
1184,2026-05-11 16:08:41.481411,-0.03164819,1.1580554,-0.80760807,0.10751228,0.051923547,-1.6099354
1185,2026-05-11 16:08:41.484590,-0.03164819,1.1580554,-0.80760807,0.10751228,0.051923547,-1.6099354
1186,2026-05-11 16:08:41.487433,-0.03164819,1.1580554,-0.80760807,0.23655757,-0.016187929,-1.8674151
1187,2026-05-11 16:08:41.490051,-0.03164819,1.1580554,-0.80760807,0.23655757,-0.016187929,-1.8674151
1188,2026-05-11 16:08:41.492856,-0.03164819,1.1580554,-0.80760807,0.23655757,-0.016187929,-1.8674151
1189,2026-05-11 16:08:41.495555,-0.03164819,1.1580554,-0.80760807,0.23655757,-0.016187929,-1.8674151
1190,2026-05-11 16:08:41.498320,-0.03164819,1.1580554,-0.80760807,0.23655757,-0.016187929,-1.8674151
1191,2026-05-11 16:08:41.501427,-0.03164819,1.1580554,-0.80760807,0.23655757,-0.016187929,-1.8674151
1192,2026-05-11 16:08:41.504237,-0.03164819,1.1580554,-0.80760807,0.23655757,-0.016187929,-1.8674151
1193,2026-05-11 16:08:41.506861,-0.03164819,1.1580554,-0.80760807,0.23655757,-0.016187929,-1.8674151
1194,2026-05-11 16:08:41.509662,-0.03164819,1.1580554,-0.80760807,0.23655757,-0.016187929,-1.8674151
1195,2026-05-11 16:08:41.512499,-0.16104598,1.0987836,-0.5366167,0.56138515,-0.111635625,-2.2072089
1196,2026-05-11 16:08:41.515266,-0.27885774,1.0789044,-0.45581928,0.56138515,-0.111635625,-2.2072089
1197,2026-05-11 16:08:41.518850,-0.27885774,1.0789044,-0.45581928,0.56138515,-0.111635625,-2.2072089
1198,2026-05-11 16:08:41.521677,-0.27885774,1.0789044,-0.45581928,0.56138515,-0.111635625,-2.2072089
1199,2026-05-11 16:08:41.524380,-0.5490564,1.0679282,-0.30215177,1.4350752,-0.2948952,-2.1192443
1200,2026-05-11 16:08:41.526969,-0.5490564,1.0679282,-0.30215177,1.4350752,-0.2948952,-2.1192443
1201,2026-05-11 16:08:41.529599,-0.5490564,1.0679282,-0.30215177,1.4350752,-0.2948952,-2.1192443
1202,2026-05-11 16:08:41.532335,-0.5490564,1.0679282,-0.30215177,1.4350752,-0.2948952,-2.1192443
1203,2026-05-11 16:08:41.535560,-0.5617401,1.0510979,-0.27885774,2.0328069,-0.46502116,-1.8022052
1204,2026-05-11 16:08:41.538354,-0.5617401,1.0510979,-0.27885774,2.0328069,-0.46502116,-1.8022052
1205,2026-05-11 16:08:41.541035,-0.5617401,1.0510979,-0.27885774,2.4008532,-0.5137377,-1.6203201
1206,2026-05-11 16:08:41.543649,-0.5617401,1.0510979,-0.27885774,2.4008532,-0.5137377,-1.6203201
1207,2026-05-11 16:08:41.546457,-0.5617401,1.0510979,-0.27885774,2.4008532,-0.5137377,-1.6203201
1208,2026-05-11 16:08:41.549312,-0.5617401,1.0510979,-0.27885774,2.4008532,-0.5137377,-1.6203201
1209,2026-05-11 16:08:41.552510,-0.5617401,1.0510979,-0.27885774,2.4008532,-0.5137377,-1.6203201
1210,2026-05-11 16:08:41.555249,-0.5617401,1.0510979,-0.27885774,2.4008532,-0.5137377,-1.6203201
1211,2026-05-11 16:08:41.558101,-0.5815583,0.9843867,-0.357033,2.6962066,-0.47112983,-1.4263704
1212,2026-05-11 16:08:41.560863,-0.5815583,0.9843867,-0.357033,2.6962066,-0.47112983,-1.4263704
1213,2026-05-11 16:08:41.563568,-0.5815583,0.9843867,-0.357033,2.6962066,-0.47112983,-1.4263704
1214,2026-05-11 16:08:41.566285,-0.5815583,0.9843867,-0.357033,2.6962066,-0.47112983,-1.4263704
1215,2026-05-11 16:08:41.569352,-0.570826,0.98054504,-0.3662409,2.8574748,-0.44700065,-1.2212723
1216,2026-05-11 16:08:41.572123,-0.570826,0.98054504,-0.3662409,2.8574748,-0.44700065,-1.2212723
1217,2026-05-11 16:08:41.574721,-0.570826,0.98054504,-0.3662409,2.8574748,-0.44700065,-1.2212723
1218,2026-05-11 16:08:41.577392,-0.570826,0.98054504,-0.3662409,2.8574748,-0.44700065,-1.2212723
1219,2026-05-11 16:08:41.579969,-0.570826,0.98054504,-0.3662409,2.8574748,-0.44700065,-1.2212723
1220,2026-05-11 16:08:41.582533,-0.570826,0.98054504,-0.3662409,2.8574748,-0.44700065,-1.2212723
1221,2026-05-11 16:08:41.585749,-0.570826,0.98054504,-0.3662409,2.8574748,-0.44700065,-1.2212723
1222,2026-05-11 16:08:41.588498,-0.570826,0.98054504,-0.3662409,2.8574748,-0.44700065,-1.2212723
1223,2026-05-11 16:08:41.591194,-0.11890938,1.0271331,-0.38666892,2.9878945,-0.3388775,-1.0519099
1224,2026-05-11 16:08:41.593800,0.22190319,1.0431097,-0.48947978,2.9878945,-0.3388775,-1.0519099
1225,2026-05-11 16:08:41.596374,0.22190319,1.0431097,-0.48947978,2.9878945,-0.3388775,-1.0519099
1226,2026-05-11 16:08:41.599188,0.22190319,1.0431097,-0.48947978,2.9878945,-0.3388775,-1.0519099
1227,2026-05-11 16:08:41.602069,0.22190319,1.0431097,-0.48947978,2.9878945,-0.3388775,-1.0519099
1228,2026-05-11 16:08:41.605705,0.22190319,1.0431097,-0.48947978,2.9878945,-0.3388775,-1.0519099
1229,2026-05-11 16:08:41.608404,0.22190319,1.0431097,-0.48947978,2.9878945,-0.3388775,-1.0519099
1230,2026-05-11 16:08:41.611173,0.22190319,1.0431097,-0.48947978,2.9878945,-0.3388775,-1.0519099
1231,2026-05-11 16:08:41.613779,0.22190319,1.0431097,-0.48947978,2.9878945,-0.3388775,-1.0519099
1232,2026-05-11 16:08:41.616621,0.22190319,1.0431097,-0.48947978,2.9878945,-0.3388775,-1.0519099
1233,2026-05-11 16:08:41.619876,0.22190319,1.0431097,-0.48947978,2.9752192,-0.013897184,-1.2635747
1234,2026-05-11 16:08:41.622743,0.22190319,1.0431097,-0.48947978,2.9752192,-0.013897184,-1.2635747
1235,2026-05-11 16:08:41.625459,0.22190319,1.0431097,-0.48947978,2.9752192,-0.013897184,-1.2635747
1236,2026-05-11 16:08:41.628183,0.22190319,1.0431097,-0.48947978,2.9752192,-0.013897184,-1.2635747
1237,2026-05-11 16:08:41.630997,0.22190319,1.0431097,-0.48947978,2.9752192,-0.013897184,-1.2635747
1238,2026-05-11 16:08:41.634160,0.22190319,1.0431097,-0.48947978,2.9752192,-0.013897184,-1.2635747
1239,2026-05-11 16:08:41.636944,0.22190319,1.0431097,-0.48947978,2.9752192,-0.013897184,-1.2635747
1240,2026-05-11 16:08:41.639805,0.22190319,1.0431097,-0.48947978,2.9752192,-0.013897184,-1.2635747
1241,2026-05-11 16:08:41.642408,0.22190319,1.0431097,-0.48947978,2.9752192,-0.013897184,-1.2635747
1242,2026-05-11 16:08:41.644997,0.22190319,1.0431097,-0.48947978,2.9752192,-0.013897184,-1.2635747
1243,2026-05-11 16:08:41.647799,0.22190319,1.0431097,-0.48947978,2.9752192,-0.013897184,-1.2635747
1244,2026-05-11 16:08:41.650912,0.49076036,1.047744,-0.6982115,2.6939158,0.5684101,-1.8338175
1245,2026-05-11 16:08:41.653724,0.49076036,1.047744,-0.6982115,2.6939158,0.5684101,-1.8338175
1246,2026-05-11 16:08:41.656486,0.49076036,1.047744,-0.6982115,2.6939158,0.5684101,-1.8338175
1247,2026-05-11 16:08:41.659145,0.49076036,1.047744,-0.6982115,2.6939158,0.5684101,-1.8338175
1248,2026-05-11 16:08:41.661752,0.49076036,1.047744,-0.6982115,2.6939158,0.5684101,-1.8338175
1249,2026-05-11 16:08:41.664432,0.49076036,1.047744,-0.6982115,2.6939158,0.5684101,-1.8338175
1250,2026-05-11 16:08:41.667632,0.49076036,1.047744,-0.6982115,2.6939158,0.5684101,-1.8338175
1251,2026-05-11 16:08:41.670584,0.49076036,1.047744,-0.6982115,2.6939158,0.5684101,-1.8338175
1252,2026-05-11 16:08:41.673269,0.49076036,1.047744,-0.6982115,2.6939158,0.5684101,-1.8338175
1253,2026-05-11 16:08:41.676054,0.4821013,0.9374937,-0.9312738,2.6939158,0.5684101,-1.8338175
1254,2026-05-11 16:08:41.678780,0.4821013,0.9374937,-0.9312738,2.6939158,0.5684101,-1.8338175
1255,2026-05-11 16:08:41.681583,0.27855286,0.8337681,-1.1037838,2.0769417,1.3187053,-2.5199718
1256,2026-05-11 16:08:41.684596,0.27855286,0.8337681,-1.1037838,2.0769417,1.3187053,-2.5199718
1257,2026-05-11 16:08:41.687287,0.27855286,0.8337681,-1.1037838,2.0769417,1.3187053,-2.5199718
1258,2026-05-11 16:08:41.690049,0.27855286,0.8337681,-1.1037838,1.4059063,1.7241671,-2.9810224
1259,2026-05-11 16:08:41.692621,0.27855286,0.8337681,-1.1037838,1.4059063,1.7241671,-2.9810224
