id,timestamp,acc_x,acc_y,acc_z,gyro_x,gyro_y,gyro_z
1,2026-05-11 16:14:58.497624,-0.18153499,0.37307054,0.9122484,0.32238412,-0.5702427,0.13836098
2,2026-05-11 16:14:58.508091,-0.20836583,0.36270407,0.91791934,0.31215215,-0.6542367,0.12415836
3,2026-05-11 16:14:58.511143,-0.20836583,0.36270407,0.91791934,0.31215215,-0.6542367,0.12415836
4,2026-05-11 16:14:58.513861,-0.20836583,0.36270407,0.91791934,0.31215215,-0.6542367,0.12415836
5,2026-05-11 16:14:58.517247,-0.20836583,0.36270407,0.91791934,0.31215215,-0.6542367,0.12415836
6,2026-05-11 16:14:58.520224,-0.20836583,0.36270407,0.91791934,0.31215215,-0.6542367,0.12415836
7,2026-05-11 16:14:58.523048,-0.20836583,0.36270407,0.91791934,0.31215215,-0.6542367,0.12415836
8,2026-05-11 16:14:58.525651,-0.20836583,0.36270407,0.91791934,0.31215215,-0.6542367,0.12415836
9,2026-05-11 16:14:58.528574,-0.20836583,0.36270407,0.91791934,0.31215215,-0.6542367,0.12415836
10,2026-05-11 16:14:58.531212,-0.20836583,0.36270407,0.91791934,0.31215215,-0.6542367,0.12415836
11,2026-05-11 16:14:58.534175,-0.20836583,0.36270407,0.91791934,0.31215215,-0.6542367,0.12415836
12,2026-05-11 16:14:58.537105,-0.20836583,0.36270407,0.91791934,0.31215215,-0.6542367,0.12415836
13,2026-05-11 16:14:58.539749,-0.20836583,0.36270407,0.91791934,0.31215215,-0.6542367,0.12415836
14,2026-05-11 16:14:58.542492,-0.20836583,0.36270407,0.91791934,0.31215215,-0.6542367,0.12415836
15,2026-05-11 16:14:58.545259,-0.20836583,0.36270407,0.91791934,0.31215215,-0.6542367,0.12415836
16,2026-05-11 16:14:58.548027,-0.20836583,0.36270407,0.91791934,0.31215215,-0.6542367,0.12415836
17,2026-05-11 16:14:58.551115,-0.20836583,0.36270407,0.91791934,0.31215215,-0.6542367,0.12415836
18,2026-05-11 16:14:58.553783,-0.20836583,0.36270407,0.91791934,0.31215215,-0.6542367,0.12415836
19,2026-05-11 16:14:58.556402,-0.20836583,0.36270407,0.91791934,0.31215215,-0.6542367,0.12415836
20,2026-05-11 16:14:58.558957,-0.20836583,0.36270407,0.91791934,0.31215215,-0.6542367,0.12415836
21,2026-05-11 16:14:58.561812,-0.20836583,0.36270407,0.91791934,0.31215215,-0.6542367,0.12415836
22,2026-05-11 16:14:58.564452,-0.20836583,0.36270407,0.91791934,0.31215215,-0.6542367,0.12415836
23,2026-05-11 16:14:58.567613,-0.20836583,0.36270407,0.91791934,0.31215215,-0.6542367,0.12415836
24,2026-05-11 16:14:58.570490,-0.20836583,0.36270407,0.91791934,0.31215215,-0.6542367,0.12415836
25,2026-05-11 16:14:58.573093,-0.20836583,0.36270407,0.91791934,0.31215215,-0.6542367,0.12415836
26,2026-05-11 16:14:58.575700,-0.20836583,0.36270407,0.91791934,0.31215215,-0.6542367,0.12415836
27,2026-05-11 16:14:58.578502,-0.20836583,0.36270407,0.91791934,0.31215215,-0.6542367,0.12415836
28,2026-05-11 16:14:58.581175,-0.26440567,0.35996002,0.89041775,0.31215215,-0.6542367,0.12415836
29,2026-05-11 16:14:58.584371,-0.26440567,0.35996002,0.89041775,0.31215215,-0.6542367,0.12415836
30,2026-05-11 16:14:58.587102,-0.26440567,0.35996002,0.89041775,0.31215215,-0.6542367,0.12415836
31,2026-05-11 16:14:58.589803,-0.26440567,0.35996002,0.89041775,0.31215215,-0.6542367,0.12415836
32,2026-05-11 16:14:58.592423,-0.26440567,0.35996002,0.89041775,0.31215215,-0.6542367,0.12415836
33,2026-05-11 16:14:58.595037,-0.26440567,0.35996002,0.89041775,0.31215215,-0.6542367,0.12415836
34,2026-05-11 16:14:58.597619,-0.26440567,0.35996002,0.89041775,0.31215215,-0.6542367,0.12415836
35,2026-05-11 16:14:58.600855,-0.26440567,0.35996002,0.89041775,0.31215215,-0.6542367,0.12415836
36,2026-05-11 16:14:58.603599,-0.26440567,0.35996002,0.89041775,0.31215215,-0.6542367,0.12415836
37,2026-05-11 16:14:58.606182,-0.26440567,0.35996002,0.89041775,0.31215215,-0.6542367,0.12415836
38,2026-05-11 16:14:58.608953,-0.26440567,0.35996002,0.89041775,0.31215215,-0.6542367,0.12415836
39,2026-05-11 16:14:58.611567,-0.26440567,0.35996002,0.89041775,0.31215215,-0.6542367,0.12415836
40,2026-05-11 16:14:58.614544,-0.26440567,0.35996002,0.89041775,0.3184135,-0.91247994,0.22052236
41,2026-05-11 16:14:58.618111,-0.26440567,0.35996002,0.89041775,0.3184135,-0.91247994,0.22052236
42,2026-05-11 16:14:58.620923,-0.26440567,0.35996002,0.89041775,0.3184135,-0.91247994,0.22052236
43,2026-05-11 16:14:58.623539,-0.26440567,0.35996002,0.89041775,0.3184135,-0.91247994,0.22052236
44,2026-05-11 16:14:58.626373,-0.26440567,0.35996002,0.89041775,0.3184135,-0.91247994,0.22052236
45,2026-05-11 16:14:58.628961,-0.26440567,0.35996002,0.89041775,0.3184135,-0.91247994,0.22052236
46,2026-05-11 16:14:58.631886,-0.26440567,0.35996002,0.89041775,0.3184135,-0.91247994,0.22052236
47,2026-05-11 16:14:58.634781,-0.26440567,0.35996002,0.89041775,0.3184135,-0.91247994,0.22052236
48,2026-05-11 16:14:58.637523,-0.26440567,0.35996002,0.89041775,0.3184135,-0.91247994,0.22052236
49,2026-05-11 16:14:58.640583,-0.26440567,0.35996002,0.89041775,0.3184135,-0.91247994,0.22052236
50,2026-05-11 16:14:58.643523,-0.26440567,0.35996002,0.89041775,0.3184135,-0.91247994,0.22052236
51,2026-05-11 16:14:58.646189,-0.26440567,0.35996002,0.89041775,0.3184135,-0.91247994,0.22052236
52,2026-05-11 16:14:58.649024,-0.26440567,0.35996002,0.89041775,0.3184135,-0.91247994,0.22052236
53,2026-05-11 16:14:58.652164,-0.26440567,0.35996002,0.89041775,0.3184135,-0.91247994,0.22052236
54,2026-05-11 16:14:58.655036,-0.26440567,0.35996002,0.89041775,0.3184135,-0.91247994,0.22052236
55,2026-05-11 16:14:58.657783,-0.26440567,0.35996002,0.89041775,0.3184135,-0.91247994,0.22052236
56,2026-05-11 16:14:58.660763,-0.27605268,0.32648247,0.86498946,0.2518292,-0.9955576,0.35170567
57,2026-05-11 16:14:58.663567,-0.27605268,0.32648247,0.86498946,0.2518292,-0.9955576,0.35170567
58,2026-05-11 16:14:58.666799,-0.27605268,0.32648247,0.86498946,0.2518292,-0.9955576,0.35170567
59,2026-05-11 16:14:58.669558,-0.27605268,0.32648247,0.86498946,0.2518292,-0.9955576,0.35170567
60,2026-05-11 16:14:58.672231,-0.27605268,0.32648247,0.86498946,0.2518292,-0.9955576,0.35170567
61,2026-05-11 16:14:58.674803,-0.27605268,0.32648247,0.86498946,0.2518292,-0.9955576,0.35170567
62,2026-05-11 16:14:58.677362,-0.27605268,0.32648247,0.86498946,0.2518292,-0.9955576,0.35170567
63,2026-05-11 16:14:58.680233,-0.27605268,0.32648247,0.86498946,0.2518292,-0.9955576,0.35170567
64,2026-05-11 16:14:58.683343,-0.27605268,0.32648247,0.86498946,0.2518292,-0.9955576,0.35170567
65,2026-05-11 16:14:58.686056,-0.27605268,0.32648247,0.86498946,0.2518292,-0.9955576,0.35170567
66,2026-05-11 16:14:58.688753,-0.27605268,0.32648247,0.86498946,0.17684549,-1.0225884,0.47983465
67,2026-05-11 16:14:58.691417,-0.27605268,0.32648247,0.86498946,0.17684549,-1.0225884,0.47983465
68,2026-05-11 16:14:58.693977,-0.27605268,0.32648247,0.86498946,0.17684549,-1.0225884,0.47983465
69,2026-05-11 16:14:58.696676,-0.27605268,0.32648247,0.86498946,0.17684549,-1.0225884,0.47983465
70,2026-05-11 16:14:58.699614,-0.22543997,0.3413004,0.9110288,0.17684549,-1.0225884,0.47983465
71,2026-05-11 16:14:58.702405,-0.22543997,0.3413004,0.9110288,0.17684549,-1.0225884,0.47983465
72,2026-05-11 16:14:58.704993,-0.22543997,0.3413004,0.9110288,0.17684549,-1.0225884,0.47983465
73,2026-05-11 16:14:58.707634,-0.22543997,0.3413004,0.9110288,0.17684549,-1.0225884,0.47983465
74,2026-05-11 16:14:58.710285,-0.22543997,0.3413004,0.9110288,0.17684549,-1.0225884,0.47983465
75,2026-05-11 16:14:58.712818,-0.22543997,0.3413004,0.9110288,0.17684549,-1.0225884,0.47983465
76,2026-05-11 16:14:58.715758,-0.22543997,0.3413004,0.9110288,0.17684549,-1.0225884,0.47983465
77,2026-05-11 16:14:58.718490,-0.22543997,0.3413004,0.9110288,0.17684549,-1.0225884,0.47983465
78,2026-05-11 16:14:58.721103,-0.22543997,0.3413004,0.9110288,0.17684549,-1.0225884,0.47983465
79,2026-05-11 16:14:58.723869,-0.22543997,0.3413004,0.9110288,0.17684549,-1.0225884,0.47983465
80,2026-05-11 16:14:58.726612,-0.22543997,0.3413004,0.9110288,0.17684549,-1.0225884,0.47983465
81,2026-05-11 16:14:58.729209,-0.22543997,0.3413004,0.9110288,0.17684549,-1.0225884,0.47983465
82,2026-05-11 16:14:58.731871,-0.22543997,0.3413004,0.9110288,0.17684549,-1.0225884,0.47983465
83,2026-05-11 16:14:58.735154,-0.22543997,0.3413004,0.9110288,0.17684549,-1.0225884,0.47983465
84,2026-05-11 16:14:58.737903,-0.22543997,0.3413004,0.9110288,0.17684549,-1.0225884,0.47983465
85,2026-05-11 16:14:58.740633,-0.22543997,0.3413004,0.9110288,0.17684549,-1.0225884,0.47983465
86,2026-05-11 16:14:58.743230,-0.22543997,0.3413004,0.9110288,0.17684549,-1.0225884,0.47983465
87,2026-05-11 16:14:58.745992,-0.22543997,0.3413004,0.9110288,0.17684549,-1.0225884,0.47983465
88,2026-05-11 16:14:58.748700,-0.18842563,0.34721538,0.9584096,0.17684549,-1.0225884,0.47983465
89,2026-05-11 16:14:58.751999,-0.18842563,0.34721538,0.9584096,0.17684549,-1.0225884,0.47983465
90,2026-05-11 16:14:58.754973,-0.18842563,0.34721538,0.9584096,0.17684549,-1.0225884,0.47983465
91,2026-05-11 16:14:58.757608,-0.18842563,0.34721538,0.9584096,0.17684549,-1.0225884,0.47983465
92,2026-05-11 16:14:58.760152,-0.18842563,0.34721538,0.9584096,0.17684549,-1.0225884,0.47983465
93,2026-05-11 16:14:58.763030,-0.18842563,0.34721538,0.9584096,0.16371189,-1.0280862,0.5164866
94,2026-05-11 16:14:58.765725,-0.18842563,0.34721538,0.9584096,0.16371189,-1.0280862,0.5164866
95,2026-05-11 16:14:58.769188,-0.18842563,0.34721538,0.9584096,0.16371189,-1.0280862,0.5164866
96,2026-05-11 16:14:58.771943,-0.18842563,0.34721538,0.9584096,0.16371189,-1.0280862,0.5164866
97,2026-05-11 16:14:58.774534,-0.18842563,0.34721538,0.9584096,0.16371189,-1.0280862,0.5164866
98,2026-05-11 16:14:58.777353,-0.18842563,0.34721538,0.9584096,0.16371189,-1.0280862,0.5164866
99,2026-05-11 16:14:58.779963,-0.18842563,0.34721538,0.9584096,0.16371189,-1.0280862,0.5164866
100,2026-05-11 16:14:58.783109,-0.18842563,0.34721538,0.9584096,0.16371189,-1.0280862,0.5164866
101,2026-05-11 16:14:58.785813,-0.18842563,0.34721538,0.9584096,0.16371189,-1.0280862,0.5164866
102,2026-05-11 16:14:58.788393,-0.18842563,0.34721538,0.9584096,0.16371189,-1.0280862,0.5164866
103,2026-05-11 16:14:58.790983,-0.18842563,0.34721538,0.9584096,0.16371189,-1.0280862,0.5164866
104,2026-05-11 16:14:58.793533,-0.18842563,0.34721538,0.9584096,0.16371189,-1.0280862,0.5164866
105,2026-05-11 16:14:58.796264,-0.18842563,0.34721538,0.9584096,0.16371189,-1.0280862,0.5164866
106,2026-05-11 16:14:58.799944,-0.18842563,0.34721538,0.9584096,0.16371189,-1.0280862,0.5164866
107,2026-05-11 16:14:58.803135,-0.18842563,0.34721538,0.9584096,0.16371189,-1.0280862,0.5164866
108,2026-05-11 16:14:58.805741,-0.18842563,0.34721538,0.9584096,0.16371189,-1.0280862,0.5164866
109,2026-05-11 16:14:58.808638,-0.18842563,0.34721538,0.9584096,0.16371189,-1.0280862,0.5164866
110,2026-05-11 16:14:58.811241,-0.18842563,0.34721538,0.9584096,0.16371189,-1.0280862,0.5164866
111,2026-05-11 16:14:58.814131,-0.18842563,0.34721538,0.9584096,0.16371189,-1.0280862,0.5164866
112,2026-05-11 16:14:58.817230,-0.18842563,0.34721538,0.9584096,0.16371189,-1.0280862,0.5164866
113,2026-05-11 16:14:58.819971,-0.18842563,0.34721538,0.9584096,0.16371189,-1.0280862,0.5164866
114,2026-05-11 16:14:58.822580,-0.18842563,0.34721538,0.9584096,0.16371189,-1.0280862,0.5164866
115,2026-05-11 16:14:58.825509,-0.18842563,0.34721538,0.9584096,0.16371189,-1.0280862,0.5164866
116,2026-05-11 16:14:58.828103,-0.18842563,0.34721538,0.9584096,0.16371189,-1.0280862,0.5164866
117,2026-05-11 16:14:58.830915,-0.18842563,0.34721538,0.9584096,0.16371189,-1.0280862,0.5164866
118,2026-05-11 16:14:58.833873,-0.18842563,0.34721538,0.9584096,0.16371189,-1.0280862,0.5164866
119,2026-05-11 16:14:58.836662,-0.18842563,0.34721538,0.9584096,0.16371189,-1.0280862,0.5164866
120,2026-05-11 16:14:58.839226,-0.18842563,0.34721538,0.9584096,0.16371189,-1.0280862,0.5164866
121,2026-05-11 16:14:58.842002,-0.18842563,0.34721538,0.9584096,0.16371189,-1.0280862,0.5164866
122,2026-05-11 16:14:58.844585,-0.18842563,0.34721538,0.9584096,0.16371189,-1.0280862,0.5164866
123,2026-05-11 16:14:58.847207,-0.18842563,0.34721538,0.9584096,0.16371189,-1.0280862,0.5164866
124,2026-05-11 16:14:58.850198,-0.18842563,0.34721538,0.9584096,0.16371189,-1.0280862,0.5164866
125,2026-05-11 16:14:58.852982,-0.18842563,0.34721538,0.9584096,0.16371189,-1.0280862,0.5164866
126,2026-05-11 16:14:58.855556,-0.18842563,0.34721538,0.9584096,0.16371189,-1.0280862,0.5164866
127,2026-05-11 16:14:58.858140,-0.18842563,0.34721538,0.9584096,0.16371189,-1.0280862,0.5164866
128,2026-05-11 16:14:58.860657,-0.18842563,0.34721538,0.9584096,0.16371189,-1.0280862,0.5164866
129,2026-05-11 16:14:58.863359,-0.18842563,0.34721538,0.9584096,0.16371189,-1.0280862,0.5164866
130,2026-05-11 16:14:58.866318,-0.18842563,0.34721538,0.9584096,0.16371189,-1.0280862,0.5164866
131,2026-05-11 16:14:58.869208,-0.18842563,0.34721538,0.9584096,0.16371189,-1.0280862,0.5164866
132,2026-05-11 16:14:58.871844,-0.18842563,0.34721538,0.9584096,0.16371189,-1.0280862,0.5164866
133,2026-05-11 16:14:58.874397,-0.18842563,0.34721538,0.9584096,0.16371189,-1.0280862,0.5164866
134,2026-05-11 16:14:58.877186,-0.18842563,0.34721538,0.9584096,0.16371189,-1.0280862,0.5164866
135,2026-05-11 16:14:58.879933,-0.18842563,0.34721538,0.9584096,0.21410827,-0.9807441,0.50701815
136,2026-05-11 16:14:58.883267,-0.18842563,0.34721538,0.9584096,0.21410827,-0.9807441,0.50701815
137,2026-05-11 16:14:58.886045,-0.18842563,0.34721538,0.9584096,0.21410827,-0.9807441,0.50701815
138,2026-05-11 16:14:58.888760,-0.18842563,0.34721538,0.9584096,0.21410827,-0.9807441,0.50701815
139,2026-05-11 16:14:58.891341,-0.18842563,0.34721538,0.9584096,0.21410827,-0.9807441,0.50701815
140,2026-05-11 16:14:58.894087,-0.18842563,0.34721538,0.9584096,0.21410827,-0.9807441,0.50701815
141,2026-05-11 16:14:58.896665,-0.18842563,0.34721538,0.9584096,0.21410827,-0.9807441,0.50701815
142,2026-05-11 16:14:58.899661,-0.18842563,0.34721538,0.9584096,0.21410827,-0.9807441,0.50701815
143,2026-05-11 16:14:58.902377,-0.18842563,0.34721538,0.9584096,0.21410827,-0.9807441,0.50701815
144,2026-05-11 16:14:58.904988,-0.18842563,0.34721538,0.9584096,0.21410827,-0.9807441,0.50701815
145,2026-05-11 16:14:58.907788,-0.18842563,0.34721538,0.9584096,0.21410827,-0.9807441,0.50701815
146,2026-05-11 16:14:58.910433,-0.18842563,0.34721538,0.9584096,0.21410827,-0.9807441,0.50701815
147,2026-05-11 16:14:58.912975,-0.18842563,0.34721538,0.9584096,0.21410827,-0.9807441,0.50701815
148,2026-05-11 16:14:58.916032,-0.18842563,0.34721538,0.9584096,0.21410827,-0.9807441,0.50701815
149,2026-05-11 16:14:58.918721,-0.18842563,0.34721538,0.9584096,0.21410827,-0.9807441,0.50701815
150,2026-05-11 16:14:58.921291,-0.18842563,0.34721538,0.9584096,0.21410827,-0.9807441,0.50701815
151,2026-05-11 16:14:58.924110,-0.18842563,0.34721538,0.9584096,0.21410827,-0.9807441,0.50701815
152,2026-05-11 16:14:58.926766,-0.18842563,0.34721538,0.9584096,0.21410827,-0.9807441,0.50701815
153,2026-05-11 16:14:58.929461,-0.18842563,0.34721538,0.9584096,0.21410827,-0.9807441,0.50701815
154,2026-05-11 16:14:58.932565,-0.062686585,0.34623972,1.0314016,0.3417791,-0.75945824,0.44913867
155,2026-05-11 16:14:58.935504,-0.062686585,0.34623972,1.0314016,0.3417791,-0.75945824,0.44913867
156,2026-05-11 16:14:58.938293,-0.062686585,0.34623972,1.0314016,0.3417791,-0.75945824,0.44913867
157,2026-05-11 16:14:58.940876,-0.062686585,0.34623972,1.0314016,0.3417791,-0.75945824,0.44913867
158,2026-05-11 16:14:58.943434,-0.062686585,0.34623972,1.0314016,0.3417791,-0.75945824,0.44913867
159,2026-05-11 16:14:58.946163,-0.062686585,0.34623972,1.0314016,0.3417791,-0.75945824,0.44913867
160,2026-05-11 16:14:58.949051,-0.05195425,0.36599696,1.0081686,0.40591997,-0.47952923,0.38698313
161,2026-05-11 16:14:58.952235,-0.05195425,0.36599696,1.0081686,0.40591997,-0.47952923,0.38698313
162,2026-05-11 16:14:58.954857,-0.05195425,0.36599696,1.0081686,0.40591997,-0.47952923,0.38698313
163,2026-05-11 16:14:58.957399,-0.05195425,0.36599696,1.0081686,0.40591997,-0.47952923,0.38698313
164,2026-05-11 16:14:58.960036,-0.05195425,0.36599696,1.0081686,0.40591997,-0.47952923,0.38698313
165,2026-05-11 16:14:58.962553,-0.05195425,0.36599696,1.0081686,0.40591997,-0.47952923,0.38698313
166,2026-05-11 16:14:58.965259,-0.05195425,0.36599696,1.0081686,0.40591997,-0.47952923,0.38698313
167,2026-05-11 16:14:58.968320,-0.05195425,0.36599696,1.0081686,0.40591997,-0.47952923,0.38698313
168,2026-05-11 16:14:58.971247,-0.05195425,0.36599696,1.0081686,0.40591997,-0.47952923,0.38698313
169,2026-05-11 16:14:58.974037,-0.05195425,0.36599696,1.0081686,0.40591997,-0.47952923,0.38698313
170,2026-05-11 16:14:58.976765,-0.05195425,0.36599696,1.0081686,0.40591997,-0.47952923,0.38698313
171,2026-05-11 16:14:58.979433,-0.05195425,0.36599696,1.0081686,0.40591997,-0.47952923,0.38698313
172,2026-05-11 16:14:58.982119,-0.05195425,0.36599696,1.0081686,0.40591997,-0.47952923,0.38698313
173,2026-05-11 16:14:58.985257,-0.05195425,0.36599696,1.0081686,0.40591997,-0.47952923,0.38698313
174,2026-05-11 16:14:58.987818,-0.05195425,0.36599696,1.0081686,0.40591997,-0.47952923,0.38698313
175,2026-05-11 16:14:58.990391,-0.05195425,0.36599696,1.0081686,0.40591997,-0.47952923,0.38698313
176,2026-05-11 16:14:58.992987,-0.05195425,0.36599696,1.0081686,0.40591997,-0.47952923,0.38698313
177,2026-05-11 16:14:58.995492,-0.05195425,0.36599696,1.0081686,0.40591997,-0.47952923,0.38698313
178,2026-05-11 16:14:58.998064,-0.05195425,0.36599696,1.0081686,0.40591997,-0.47952923,0.38698313
179,2026-05-11 16:14:59.001113,-0.05195425,0.36599696,1.0081686,0.40591997,-0.47952923,0.38698313
180,2026-05-11 16:14:59.003763,-0.05195425,0.36599696,1.0081686,0.40591997,-0.47952923,0.38698313
181,2026-05-11 16:14:59.006359,-0.05195425,0.36599696,1.0081686,0.40591997,-0.47952923,0.38698313
182,2026-05-11 16:14:59.008887,-0.05195425,0.36599696,1.0081686,0.40591997,-0.47952923,0.38698313
183,2026-05-11 16:14:59.011477,-0.05195425,0.36599696,1.0081686,0.40591997,-0.47952923,0.38698313
184,2026-05-11 16:14:59.014009,-0.05195425,0.36599696,1.0081686,0.40591997,-0.47952923,0.38698313
185,2026-05-11 16:14:59.016970,-0.05195425,0.36599696,1.0081686,0.40591997,-0.47952923,0.38698313
186,2026-05-11 16:14:59.019702,-0.05195425,0.36599696,1.0081686,0.40591997,-0.47952923,0.38698313
187,2026-05-11 16:14:59.022279,-0.05195425,0.36599696,1.0081686,0.40591997,-0.47952923,0.38698313
188,2026-05-11 16:14:59.025148,-0.05195425,0.36599696,1.0081686,0.40591997,-0.47952923,0.38698313
189,2026-05-11 16:14:59.027755,-0.05195425,0.36599696,1.0081686,0.40591997,-0.47952923,0.38698313
190,2026-05-11 16:14:59.030666,-0.05195425,0.36599696,1.0081686,0.44135013,-0.28680122,0.32650748
191,2026-05-11 16:14:59.033497,-0.05195425,0.36599696,1.0081686,0.44135013,-0.28680122,0.32650748
192,2026-05-11 16:14:59.036805,-0.05195425,0.36599696,1.0081686,0.44135013,-0.28680122,0.32650748
193,2026-05-11 16:14:59.039739,-0.05195425,0.36599696,1.0081686,0.44135013,-0.28680122,0.32650748
194,2026-05-11 16:14:59.042400,-0.05195425,0.36599696,1.0081686,0.44135013,-0.28680122,0.32650748
195,2026-05-11 16:14:59.045004,-0.05195425,0.36599696,1.0081686,0.44135013,-0.28680122,0.32650748
196,2026-05-11 16:14:59.047594,-0.05195425,0.36599696,1.0081686,0.44135013,-0.28680122,0.32650748
197,2026-05-11 16:14:59.050268,-0.05195425,0.36599696,1.0081686,0.44135013,-0.28680122,0.32650748
198,2026-05-11 16:14:59.053616,-0.05195425,0.36599696,1.0081686,0.44135013,-0.28680122,0.32650748
199,2026-05-11 16:14:59.056390,-0.05195425,0.36599696,1.0081686,0.44135013,-0.28680122,0.32650748
200,2026-05-11 16:14:59.058935,-0.05195425,0.36599696,1.0081686,0.44135013,-0.28680122,0.32650748
201,2026-05-11 16:14:59.061488,-0.05195425,0.36599696,1.0081686,0.44135013,-0.28680122,0.32650748
202,2026-05-11 16:14:59.064045,-0.05195425,0.36599696,1.0081686,0.44135013,-0.28680122,0.32650748
203,2026-05-11 16:14:59.066975,-0.05195425,0.36599696,1.0081686,0.44135013,-0.28680122,0.32650748
204,2026-05-11 16:14:59.069700,-0.05195425,0.36599696,1.0081686,0.44135013,-0.28680122,0.32650748
205,2026-05-11 16:14:59.072408,-0.05195425,0.36599696,1.0081686,0.44135013,-0.28680122,0.32650748
206,2026-05-11 16:14:59.074987,-0.05195425,0.36599696,1.0081686,0.44135013,-0.28680122,0.32650748
207,2026-05-11 16:14:59.077616,-0.05195425,0.36599696,1.0081686,0.44135013,-0.28680122,0.32650748
208,2026-05-11 16:14:59.080162,-0.05195425,0.36599696,1.0081686,0.44135013,-0.28680122,0.32650748
209,2026-05-11 16:14:59.083536,-0.05195425,0.36599696,1.0081686,0.44135013,-0.28680122,0.32650748
210,2026-05-11 16:14:59.086301,-0.05195425,0.36599696,1.0081686,0.44135013,-0.28680122,0.32650748
211,2026-05-11 16:14:59.088868,-0.05195425,0.36599696,1.0081686,0.44135013,-0.28680122,0.32650748
212,2026-05-11 16:14:59.091500,-0.07335794,0.3784367,0.97889864,0.44135013,-0.28680122,0.32650748
213,2026-05-11 16:14:59.094371,-0.07335794,0.3784367,0.97889864,0.44135013,-0.28680122,0.32650748
214,2026-05-11 16:14:59.096993,-0.07335794,0.3784367,0.97889864,0.44135013,-0.28680122,0.32650748
215,2026-05-11 16:14:59.100346,-0.07335794,0.3784367,0.97889864,0.44135013,-0.28680122,0.32650748
216,2026-05-11 16:14:59.103087,-0.07335794,0.3784367,0.97889864,0.44135013,-0.28680122,0.32650748
217,2026-05-11 16:14:59.105735,-0.07335794,0.3784367,0.97889864,0.44135013,-0.28680122,0.32650748
218,2026-05-11 16:14:59.108420,-0.07335794,0.3784367,0.97889864,0.44135013,-0.28680122,0.32650748
219,2026-05-11 16:14:59.111017,-0.07335794,0.3784367,0.97889864,0.44135013,-0.28680122,0.32650748
220,2026-05-11 16:14:59.113704,-0.07335794,0.3784367,0.97889864,0.44135013,-0.28680122,0.32650748
221,2026-05-11 16:14:59.116705,-0.07335794,0.3784367,0.97889864,0.44135013,-0.28680122,0.32650748
222,2026-05-11 16:14:59.119487,-0.07335794,0.3784367,0.97889864,0.44135013,-0.28680122,0.32650748
223,2026-05-11 16:14:59.122078,-0.07335794,0.3784367,0.97889864,0.44135013,-0.28680122,0.32650748
224,2026-05-11 16:14:59.124632,-0.07335794,0.3784367,0.97889864,0.44135013,-0.28680122,0.32650748
225,2026-05-11 16:14:59.127394,-0.07335794,0.3784367,0.97889864,0.44135013,-0.28680122,0.32650748
226,2026-05-11 16:14:59.129978,-0.07335794,0.3784367,0.97889864,0.44135013,-0.28680122,0.32650748
227,2026-05-11 16:14:59.133016,-0.07335794,0.3784367,0.97889864,0.44135013,-0.28680122,0.32650748
228,2026-05-11 16:14:59.135833,-0.07335794,0.3784367,0.97889864,0.44135013,-0.28680122,0.32650748
229,2026-05-11 16:14:59.138442,-0.07335794,0.3784367,0.97889864,0.44135013,-0.28680122,0.32650748
230,2026-05-11 16:14:59.141142,-0.07335794,0.3784367,0.97889864,0.44135013,-0.28680122,0.32650748
231,2026-05-11 16:14:59.143711,-0.07335794,0.3784367,0.97889864,0.44135013,-0.28680122,0.32650748
232,2026-05-11 16:14:59.146605,-0.07335794,0.3784367,0.97889864,0.44135013,-0.28680122,0.32650748
233,2026-05-11 16:14:59.149634,-0.07335794,0.3784367,0.97889864,0.44135013,-0.28680122,0.32650748
234,2026-05-11 16:14:59.152609,-0.07335794,0.3784367,0.97889864,0.44135013,-0.28680122,0.32650748
235,2026-05-11 16:14:59.155260,-0.07335794,0.3784367,0.97889864,0.44135013,-0.28680122,0.32650748
236,2026-05-11 16:14:59.157842,-0.07335794,0.3784367,0.97889864,0.44135013,-0.28680122,0.32650748
237,2026-05-11 16:14:59.160552,-0.07335794,0.3784367,0.97889864,0.44135013,-0.28680122,0.32650748
238,2026-05-11 16:14:59.163125,-0.07335794,0.3784367,0.97889864,0.44135013,-0.28680122,0.32650748
239,2026-05-11 16:14:59.166058,-0.07335794,0.3784367,0.97889864,0.44135013,-0.28680122,0.32650748
240,2026-05-11 16:14:59.169069,-0.07335794,0.3784367,0.97889864,0.44135013,-0.28680122,0.32650748
241,2026-05-11 16:14:59.171721,-0.07335794,0.3784367,0.97889864,0.44135013,-0.28680122,0.32650748
242,2026-05-11 16:14:59.174278,-0.07335794,0.3784367,0.97889864,0.44135013,-0.28680122,0.32650748
243,2026-05-11 16:14:59.176848,-0.07335794,0.3784367,0.97889864,0.44135013,-0.28680122,0.32650748
244,2026-05-11 16:14:59.179544,-0.07335794,0.3784367,0.97889864,0.44135013,-0.28680122,0.32650748
245,2026-05-11 16:14:59.182186,-0.07335794,0.3784367,0.97889864,0.44135013,-0.28680122,0.32650748
246,2026-05-11 16:14:59.185306,-0.07335794,0.3784367,0.97889864,0.44135013,-0.28680122,0.32650748
247,2026-05-11 16:14:59.187927,-0.07335794,0.3784367,0.97889864,0.44135013,-0.28680122,0.32650748
248,2026-05-11 16:14:59.190482,-0.07335794,0.3784367,0.97889864,0.44135013,-0.28680122,0.32650748
249,2026-05-11 16:14:59.193336,-0.07335794,0.3784367,0.97889864,0.44135013,-0.28680122,0.32650748
250,2026-05-11 16:14:59.195923,-0.07335794,0.3784367,0.97889864,0.44135013,-0.28680122,0.32650748
251,2026-05-11 16:14:59.199177,-0.07335794,0.3784367,0.97889864,0.44135013,-0.28680122,0.32650748
252,2026-05-11 16:14:59.201907,-0.07335794,0.3784367,0.97889864,0.44135013,-0.28680122,0.32650748
253,2026-05-11 16:14:59.204499,-0.07335794,0.3784367,0.97889864,0.44135013,-0.28680122,0.32650748
254,2026-05-11 16:14:59.207181,-0.07335794,0.3784367,0.97889864,0.44135013,-0.28680122,0.32650748
255,2026-05-11 16:14:59.209741,-0.07335794,0.3784367,0.97889864,0.44135013,-0.28680122,0.32650748
256,2026-05-11 16:14:59.212324,-0.07335794,0.3784367,0.97889864,0.44135013,-0.28680122,0.32650748
257,2026-05-11 16:14:59.214980,-0.07335794,0.3784367,0.97889864,0.44135013,-0.28680122,0.32650748
258,2026-05-11 16:14:59.218212,-0.07335794,0.3784367,0.97889864,0.44135013,-0.28680122,0.32650748
259,2026-05-11 16:14:59.220978,-0.07335794,0.3784367,0.97889864,0.44135013,-0.28680122,0.32650748
260,2026-05-11 16:14:59.223715,-0.07335794,0.3784367,0.97889864,0.44135013,-0.28680122,0.32650748
261,2026-05-11 16:14:59.226384,-0.07335794,0.3784367,0.97889864,0.44135013,-0.28680122,0.32650748
262,2026-05-11 16:14:59.228953,-0.07335794,0.3784367,0.97889864,0.44135013,-0.28680122,0.32650748
263,2026-05-11 16:14:59.231621,-0.07335794,0.3784367,0.97889864,0.4992296,-0.2489276,0.29749137
264,2026-05-11 16:14:59.234503,-0.07335794,0.3784367,0.97889864,0.4992296,-0.2489276,0.29749137
265,2026-05-11 16:14:59.237282,-0.07335794,0.3784367,0.97889864,0.4992296,-0.2489276,0.29749137
266,2026-05-11 16:14:59.240069,-0.07335794,0.3784367,0.97889864,0.4992296,-0.2489276,0.29749137
267,2026-05-11 16:14:59.242736,-0.07335794,0.3784367,0.97889864,0.4992296,-0.2489276,0.29749137
268,2026-05-11 16:14:59.245370,-0.07335794,0.3784367,0.97889864,0.4992296,-0.2489276,0.29749137
269,2026-05-11 16:14:59.247946,-0.07335794,0.3784367,0.97889864,0.4992296,-0.2489276,0.29749137
270,2026-05-11 16:14:59.251110,-0.07335794,0.3784367,0.97889864,0.4992296,-0.2489276,0.29749137
271,2026-05-11 16:14:59.253760,-0.07335794,0.3784367,0.97889864,0.4992296,-0.2489276,0.29749137
272,2026-05-11 16:14:59.256332,-0.07335794,0.3784367,0.97889864,0.4992296,-0.2489276,0.29749137
273,2026-05-11 16:14:59.259022,-0.07335794,0.3784367,0.97889864,0.4992296,-0.2489276,0.29749137
274,2026-05-11 16:14:59.261565,-0.07335794,0.3784367,0.97889864,0.4992296,-0.2489276,0.29749137
275,2026-05-11 16:14:59.264094,-0.07335794,0.3784367,0.97889864,0.4992296,-0.2489276,0.29749137
276,2026-05-11 16:14:59.267228,-0.07335794,0.3784367,0.97889864,0.4992296,-0.2489276,0.29749137
277,2026-05-11 16:14:59.270111,-0.07335794,0.3784367,0.97889864,0.4992296,-0.2489276,0.29749137
278,2026-05-11 16:14:59.272757,-0.07335794,0.3784367,0.97889864,0.4992296,-0.2489276,0.29749137
279,2026-05-11 16:14:59.275318,-0.07335794,0.3784367,0.97889864,0.4992296,-0.2489276,0.29749137
280,2026-05-11 16:14:59.278598,-0.10110346,0.37770495,0.9466406,0.4992296,-0.2489276,0.29749137
281,2026-05-11 16:14:59.309452,-0.10110346,0.37770495,0.9466406,0.4992296,-0.2489276,0.29749137
282,2026-05-11 16:14:59.315918,-0.10110346,0.37770495,0.9466406,0.4992296,-0.2489276,0.29749137
283,2026-05-11 16:14:59.321904,-0.10110346,0.37770495,0.9466406,0.4992296,-0.2489276,0.29749137
284,2026-05-11 16:14:59.324584,-0.10110346,0.37770495,0.9466406,0.4992296,-0.2489276,0.29749137
285,2026-05-11 16:14:59.327170,-0.10110346,0.37770495,0.9466406,0.4992296,-0.2489276,0.29749137
286,2026-05-11 16:14:59.329737,-0.10110346,0.37770495,0.9466406,0.4992296,-0.2489276,0.29749137
287,2026-05-11 16:14:59.332804,-0.10110346,0.37770495,0.9466406,0.4992296,-0.2489276,0.29749137
288,2026-05-11 16:14:59.335488,-0.10110346,0.37770495,0.9466406,0.4992296,-0.2489276,0.29749137
289,2026-05-11 16:14:59.338084,-0.10110346,0.37770495,0.9466406,0.4992296,-0.2489276,0.29749137
290,2026-05-11 16:14:59.340761,-0.10110346,0.37770495,0.9466406,0.4992296,-0.2489276,0.29749137
291,2026-05-11 16:14:59.343349,-0.10110346,0.37770495,0.9466406,0.4992296,-0.2489276,0.29749137
292,2026-05-11 16:14:59.346004,-0.10110346,0.37770495,0.9466406,0.4992296,-0.2489276,0.29749137
293,2026-05-11 16:14:59.348795,-0.10110346,0.37770495,0.9466406,0.4992296,-0.2489276,0.29749137
294,2026-05-11 16:14:59.351874,-0.10110346,0.37770495,0.9466406,0.4992296,-0.2489276,0.29749137
295,2026-05-11 16:14:59.354469,-0.10110346,0.37770495,0.9466406,0.4992296,-0.2489276,0.29749137
296,2026-05-11 16:14:59.357049,-0.10110346,0.37770495,0.9466406,0.4992296,-0.2489276,0.29749137
297,2026-05-11 16:14:59.359590,-0.10110346,0.37770495,0.9466406,0.4992296,-0.2489276,0.29749137
298,2026-05-11 16:14:59.362438,-0.10110346,0.37770495,0.9466406,0.4992296,-0.2489276,0.29749137
299,2026-05-11 16:14:59.365141,-0.10110346,0.37770495,0.9466406,0.4992296,-0.2489276,0.29749137
300,2026-05-11 16:14:59.368425,-0.10110346,0.37770495,0.9466406,0.4992296,-0.2489276,0.29749137
301,2026-05-11 16:14:59.371194,-0.10110346,0.37770495,0.9466406,0.4992296,-0.2489276,0.29749137
302,2026-05-11 16:14:59.373955,-0.10110346,0.37770495,0.9466406,0.4992296,-0.2489276,0.29749137
303,2026-05-11 16:14:59.376714,-0.10110346,0.37770495,0.9466406,0.4992296,-0.2489276,0.29749137
304,2026-05-11 16:14:59.379414,-0.10110346,0.37770495,0.9466406,0.4992296,-0.2489276,0.29749137
305,2026-05-11 16:14:59.382282,-0.1247024,0.40173078,0.8249262,0.7545713,-0.9775371,0.22510384
306,2026-05-11 16:14:59.385338,-0.1247024,0.40173078,0.8249262,0.7545713,-0.9775371,0.22510384
307,2026-05-11 16:14:59.388030,-0.1247024,0.40173078,0.8249262,0.7545713,-0.9775371,0.22510384
308,2026-05-11 16:14:59.390644,-0.1247024,0.40173078,0.8249262,0.7545713,-0.9775371,0.22510384
309,2026-05-11 16:14:59.393446,-0.1247024,0.40173078,0.8249262,0.7545713,-0.9775371,0.22510384
310,2026-05-11 16:14:59.396031,-0.1247024,0.40173078,0.8249262,0.7545713,-0.9775371,0.22510384
311,2026-05-11 16:14:59.399003,-0.17812014,0.3998404,0.7029678,0.7545713,-0.9775371,0.22510384
312,2026-05-11 16:14:59.402021,-0.17812014,0.3998404,0.7029678,0.7545713,-0.9775371,0.22510384
313,2026-05-11 16:14:59.404658,-0.17812014,0.3998404,0.7029678,0.7545713,-0.9775371,0.22510384
314,2026-05-11 16:14:59.407393,-0.17812014,0.3998404,0.7029678,0.7545713,-0.9775371,0.22510384
315,2026-05-11 16:14:59.409967,-0.17812014,0.3998404,0.7029678,0.7545713,-0.9775371,0.22510384
316,2026-05-11 16:14:59.412677,-0.17812014,0.3998404,0.7029678,0.7545713,-0.9775371,0.22510384
317,2026-05-11 16:14:59.415414,-0.17812014,0.3998404,0.7029678,0.7545713,-0.9775371,0.22510384
318,2026-05-11 16:14:59.418739,-0.17812014,0.3998404,0.7029678,0.7545713,-0.9775371,0.22510384
319,2026-05-11 16:14:59.421476,-0.17812014,0.3998404,0.7029678,0.7545713,-0.9775371,0.22510384
320,2026-05-11 16:14:59.424112,-0.17812014,0.3998404,0.7029678,0.7545713,-0.9775371,0.22510384
321,2026-05-11 16:14:59.426971,-0.17812014,0.3998404,0.7029678,0.7545713,-0.9775371,0.22510384
322,2026-05-11 16:14:59.429608,-0.17812014,0.3998404,0.7029678,0.7545713,-0.9775371,0.22510384
323,2026-05-11 16:14:59.432538,-0.17812014,0.3998404,0.7029678,0.7545713,-0.9775371,0.22510384
324,2026-05-11 16:14:59.435437,-0.17812014,0.3998404,0.7029678,0.7545713,-0.9775371,0.22510384
325,2026-05-11 16:14:59.438073,-0.17812014,0.3998404,0.7029678,0.7545713,-0.9775371,0.22510384
326,2026-05-11 16:14:59.440589,-0.17812014,0.3998404,0.7029678,0.7545713,-0.9775371,0.22510384
327,2026-05-11 16:14:59.443286,-0.17812014,0.3998404,0.7029678,0.7545713,-0.9775371,0.22510384
328,2026-05-11 16:14:59.445771,-0.17812014,0.3998404,0.7029678,0.7545713,-0.9775371,0.22510384
329,2026-05-11 16:14:59.448667,-0.17812014,0.3998404,0.7029678,0.7545713,-0.9775371,0.22510384
330,2026-05-11 16:14:59.451337,-0.17812014,0.3998404,0.7029678,0.7545713,-0.9775371,0.22510384
331,2026-05-11 16:14:59.453866,-0.17812014,0.3998404,0.7029678,0.7545713,-0.9775371,0.22510384
332,2026-05-11 16:14:59.456587,-0.17812014,0.3998404,0.7029678,0.7545713,-0.9775371,0.22510384
333,2026-05-11 16:14:59.459147,-0.17812014,0.3998404,0.7029678,0.7545713,-0.9775371,0.22510384
334,2026-05-11 16:14:59.461673,-0.17812014,0.3998404,0.7029678,0.7545713,-0.9775371,0.22510384
335,2026-05-11 16:14:59.464299,-0.17812014,0.3998404,0.7029678,0.7545713,-0.9775371,0.22510384
336,2026-05-11 16:14:59.467152,-0.17812014,0.3998404,0.7029678,0.7545713,-0.9775371,0.22510384
337,2026-05-11 16:14:59.469777,-0.17812014,0.3998404,0.7029678,0.7545713,-0.9775371,0.22510384
338,2026-05-11 16:14:59.472421,-0.17812014,0.3998404,0.7029678,0.7545713,-0.9775371,0.22510384
339,2026-05-11 16:14:59.474872,-0.17812014,0.3998404,0.7029678,0.7545713,-0.9775371,0.22510384
340,2026-05-11 16:14:59.477551,-0.17812014,0.3998404,0.7029678,0.7545713,-0.9775371,0.22510384
341,2026-05-11 16:14:59.480025,-0.17812014,0.3998404,0.7029678,0.7545713,-0.9775371,0.22510384
342,2026-05-11 16:14:59.482829,-0.17812014,0.3998404,0.7029678,0.7545713,-0.9775371,0.22510384
343,2026-05-11 16:14:59.485552,-0.17812014,0.3998404,0.7029678,0.7545713,-0.9775371,0.22510384
344,2026-05-11 16:14:59.488116,-0.17812014,0.3998404,0.7029678,0.7545713,-0.9775371,0.22510384
345,2026-05-11 16:14:59.490598,-0.17812014,0.3998404,0.7029678,0.7545713,-0.9775371,0.22510384
346,2026-05-11 16:14:59.493085,-0.17812014,0.3998404,0.7029678,0.7545713,-0.9775371,0.22510384
347,2026-05-11 16:14:59.495524,-0.17812014,0.3998404,0.7029678,0.7545713,-0.9775371,0.22510384
348,2026-05-11 16:14:59.497994,-0.17812014,0.3998404,0.7029678,0.7545713,-0.9775371,0.22510384
349,2026-05-11 16:14:59.501428,-0.17812014,0.3998404,0.7029678,0.7545713,-0.9775371,0.22510384
350,2026-05-11 16:14:59.504157,-0.17812014,0.3998404,0.7029678,0.7545713,-0.9775371,0.22510384
351,2026-05-11 16:14:59.506971,-0.17812014,0.3998404,0.7029678,0.7545713,-0.9775371,0.22510384
352,2026-05-11 16:14:59.509635,-0.17812014,0.3998404,0.7029678,0.7545713,-0.9775371,0.22510384
353,2026-05-11 16:14:59.512456,-0.17812014,0.3998404,0.7029678,0.7545713,-0.9775371,0.22510384
354,2026-05-11 16:14:59.515353,-0.17812014,0.3998404,0.7029678,0.7545713,-0.9775371,0.22510384
355,2026-05-11 16:14:59.518831,-0.17812014,0.3998404,0.7029678,0.7545713,-0.9775371,0.22510384
356,2026-05-11 16:14:59.521563,-0.17812014,0.3998404,0.7029678,0.7370089,-1.2040154,0.27656925
357,2026-05-11 16:14:59.524459,-0.17812014,0.3998404,0.7029678,0.7370089,-1.2040154,0.27656925
358,2026-05-11 16:14:59.527320,-0.17812014,0.3998404,0.7029678,0.7370089,-1.2040154,0.27656925
359,2026-05-11 16:14:59.530059,-0.17812014,0.3998404,0.7029678,0.7370089,-1.2040154,0.27656925
360,2026-05-11 16:14:59.533313,-0.17812014,0.3998404,0.7029678,0.7370089,-1.2040154,0.27656925
361,2026-05-11 16:14:59.536177,-0.17812014,0.3998404,0.7029678,0.7370089,-1.2040154,0.27656925
362,2026-05-11 16:14:59.538916,-0.17812014,0.3998404,0.7029678,0.7370089,-1.2040154,0.27656925
363,2026-05-11 16:14:59.541548,-0.17812014,0.3998404,0.7029678,0.7370089,-1.2040154,0.27656925
364,2026-05-11 16:14:59.544333,-0.17812014,0.3998404,0.7029678,0.7370089,-1.2040154,0.27656925
365,2026-05-11 16:14:59.546915,-0.17812014,0.3998404,0.7029678,0.7370089,-1.2040154,0.27656925
366,2026-05-11 16:14:59.550386,-0.17812014,0.3998404,0.7029678,0.7370089,-1.2040154,0.27656925
367,2026-05-11 16:14:59.553152,-0.17812014,0.3998404,0.7029678,0.7370089,-1.2040154,0.27656925
368,2026-05-11 16:14:59.555943,-0.17812014,0.3998404,0.7029678,0.7370089,-1.2040154,0.27656925
369,2026-05-11 16:14:59.558565,-0.17812014,0.3998404,0.7029678,0.7370089,-1.2040154,0.27656925
370,2026-05-11 16:14:59.561320,-0.14872819,0.39703536,0.6383299,0.7370089,-1.2040154,0.27656925
371,2026-05-11 16:14:59.564246,-0.14872819,0.39703536,0.6383299,0.7370089,-1.2040154,0.27656925
372,2026-05-11 16:14:59.567604,-0.14872819,0.39703536,0.6383299,0.7370089,-1.2040154,0.27656925
373,2026-05-11 16:14:59.570330,-0.14872819,0.39703536,0.6383299,0.7370089,-1.2040154,0.27656925
374,2026-05-11 16:14:59.572901,-0.14872819,0.39703536,0.6383299,0.7370089,-1.2040154,0.27656925
375,2026-05-11 16:14:59.575759,-0.14872819,0.39703536,0.6383299,0.7370089,-1.2040154,0.27656925
376,2026-05-11 16:14:59.578342,-0.14872819,0.39703536,0.6383299,0.7370089,-1.2040154,0.27656925
377,2026-05-11 16:14:59.580918,-0.14872819,0.39703536,0.6383299,0.7370089,-1.2040154,0.27656925
378,2026-05-11 16:14:59.584217,-0.14872819,0.39703536,0.6383299,0.7370089,-1.2040154,0.27656925
379,2026-05-11 16:14:59.586952,-0.14872819,0.39703536,0.6383299,0.7370089,-1.2040154,0.27656925
380,2026-05-11 16:14:59.589552,-0.14872819,0.39703536,0.6383299,0.7370089,-1.2040154,0.27656925
381,2026-05-11 16:14:59.592464,-0.14872819,0.39703536,0.6383299,0.7370089,-1.2040154,0.27656925
382,2026-05-11 16:14:59.595067,-0.14872819,0.39703536,0.6383299,0.7370089,-1.2040154,0.27656925
383,2026-05-11 16:14:59.597845,-0.14872819,0.39703536,0.6383299,0.7370089,-1.2040154,0.27656925
384,2026-05-11 16:14:59.600979,-0.14872819,0.39703536,0.6383299,0.7370089,-1.2040154,0.27656925
385,2026-05-11 16:14:59.603775,-0.14872819,0.39703536,0.6383299,0.7370089,-1.2040154,0.27656925
386,2026-05-11 16:14:59.606424,-0.14872819,0.39703536,0.6383299,0.7370089,-1.2040154,0.27656925
387,2026-05-11 16:14:59.609015,-0.14872819,0.39703536,0.6383299,0.7370089,-1.2040154,0.27656925
388,2026-05-11 16:14:59.611833,-0.14872819,0.39703536,0.6383299,0.7370089,-1.2040154,0.27656925
389,2026-05-11 16:14:59.614458,-0.14872819,0.39703536,0.6383299,0.7370089,-1.2040154,0.27656925
390,2026-05-11 16:14:59.617780,-0.14872819,0.39703536,0.6383299,0.7370089,-1.2040154,0.27656925
391,2026-05-11 16:14:59.620784,-0.14872819,0.39703536,0.6383299,0.7370089,-1.2040154,0.27656925
392,2026-05-11 16:14:59.623477,-0.14872819,0.39703536,0.6383299,0.7370089,-1.2040154,0.27656925
393,2026-05-11 16:14:59.626156,-0.14872819,0.39703536,0.6383299,0.7370089,-1.2040154,0.27656925
394,2026-05-11 16:14:59.628822,-0.14872819,0.39703536,0.6383299,0.7370089,-1.2040154,0.27656925
395,2026-05-11 16:14:59.631384,-0.14872819,0.39703536,0.6383299,0.7370089,-1.2040154,0.27656925
396,2026-05-11 16:14:59.634730,-0.14872819,0.39703536,0.6383299,0.7370089,-1.2040154,0.27656925
397,2026-05-11 16:14:59.637572,-0.14872819,0.39703536,0.6383299,0.7370089,-1.2040154,0.27656925
398,2026-05-11 16:14:59.640286,-0.14872819,0.39703536,0.6383299,0.7370089,-1.2040154,0.27656925
399,2026-05-11 16:14:59.642918,-0.14872819,0.39703536,0.6383299,0.7370089,-1.2040154,0.27656925
400,2026-05-11 16:14:59.645739,-0.14872819,0.39703536,0.6383299,0.7370089,-1.2040154,0.27656925
401,2026-05-11 16:14:59.648407,-0.14872819,0.39703536,0.6383299,0.7370089,-1.2040154,0.27656925
402,2026-05-11 16:14:59.651632,-0.14872819,0.39703536,0.6383299,0.7370089,-1.2040154,0.27656925
403,2026-05-11 16:14:59.654494,-0.14872819,0.39703536,0.6383299,0.7370089,-1.2040154,0.27656925
404,2026-05-11 16:14:59.657088,-0.14872819,0.39703536,0.6383299,0.7370089,-1.2040154,0.27656925
405,2026-05-11 16:14:59.659734,-0.14872819,0.39703536,0.6383299,0.59757894,-1.4465289,0.366061
406,2026-05-11 16:14:59.662597,-0.14872819,0.39703536,0.6383299,0.59757894,-1.4465289,0.366061
407,2026-05-11 16:14:59.666198,-0.14872819,0.39703536,0.6383299,0.59757894,-1.4465289,0.366061
408,2026-05-11 16:14:59.670477,0.109884456,0.34910575,0.67814934,0.6794349,-2.449875,0.12034045
409,2026-05-11 16:14:59.673632,0.109884456,0.34910575,0.67814934,0.6794349,-2.449875,0.12034045
410,2026-05-11 16:14:59.676621,0.109884456,0.34910575,0.67814934,0.6794349,-2.449875,0.12034045
411,2026-05-11 16:14:59.679925,0.30379823,0.31538427,0.3808759,0.6794349,-2.449875,0.12034045
412,2026-05-11 16:14:59.683287,0.30379823,0.31538427,0.3808759,0.6794349,-2.449875,0.12034045
413,2026-05-11 16:14:59.687216,0.30379823,0.31538427,0.3808759,0.6794349,-2.449875,0.12034045
414,2026-05-11 16:14:59.690241,0.30379823,0.31538427,0.3808759,0.6794349,-2.449875,0.12034045
415,2026-05-11 16:14:59.693518,0.30379823,0.31538427,0.3808759,0.6794349,-2.449875,0.12034045
416,2026-05-11 16:14:59.696512,0.30379823,0.31538427,0.3808759,0.6794349,-2.449875,0.12034045
417,2026-05-11 16:14:59.700474,0.30379823,0.31538427,0.3808759,0.6794349,-2.449875,0.12034045
418,2026-05-11 16:14:59.703453,0.30379823,0.31538427,0.3808759,0.6794349,-2.449875,0.12034045
419,2026-05-11 16:14:59.706317,0.30379823,0.31538427,0.3808759,0.6794349,-2.449875,0.12034045
420,2026-05-11 16:14:59.709116,0.30379823,0.31538427,0.3808759,0.6794349,-2.449875,0.12034045
421,2026-05-11 16:14:59.711989,0.30379823,0.31538427,0.3808759,0.6794349,-2.449875,0.12034045
422,2026-05-11 16:14:59.714804,0.30379823,0.31538427,0.3808759,0.6794349,-2.449875,0.12034045
423,2026-05-11 16:14:59.717984,0.30379823,0.31538427,0.3808759,0.6794349,-2.449875,0.12034045
424,2026-05-11 16:14:59.720737,0.30379823,0.31538427,0.3808759,0.6794349,-2.449875,0.12034045
425,2026-05-11 16:14:59.723593,0.30379823,0.31538427,0.3808759,0.61911196,-2.4874432,-0.36468655
426,2026-05-11 16:14:59.726290,0.30379823,0.31538427,0.3808759,0.61911196,-2.4874432,-0.36468655
427,2026-05-11 16:14:59.728855,0.30379823,0.31538427,0.3808759,0.61911196,-2.4874432,-0.36468655
428,2026-05-11 16:14:59.731436,0.30379823,0.31538427,0.3808759,0.61911196,-2.4874432,-0.36468655
429,2026-05-11 16:14:59.734381,0.30379823,0.31538427,0.3808759,0.61911196,-2.4874432,-0.36468655
430,2026-05-11 16:14:59.737119,0.30379823,0.31538427,0.3808759,0.61911196,-2.4874432,-0.36468655
431,2026-05-11 16:14:59.739880,0.30379823,0.31538427,0.3808759,0.61911196,-2.4874432,-0.36468655
432,2026-05-11 16:14:59.742483,0.30379823,0.31538427,0.3808759,0.61911196,-2.4874432,-0.36468655
433,2026-05-11 16:14:59.745253,0.30379823,0.31538427,0.3808759,0.61911196,-2.4874432,-0.36468655
434,2026-05-11 16:14:59.747850,0.30379823,0.31538427,0.3808759,0.61911196,-2.4874432,-0.36468655
435,2026-05-11 16:14:59.751045,0.30379823,0.31538427,0.3808759,0.61911196,-2.4874432,-0.36468655
436,2026-05-11 16:14:59.753715,0.30379823,0.31538427,0.3808759,0.61911196,-2.4874432,-0.36468655
437,2026-05-11 16:14:59.756314,0.30379823,0.31538427,0.3808759,0.61911196,-2.4874432,-0.36468655
438,2026-05-11 16:14:59.758909,0.30379823,0.31538427,0.3808759,0.61911196,-2.4874432,-0.36468655
439,2026-05-11 16:14:59.761433,0.30379823,0.31538427,0.3808759,0.61911196,-2.4874432,-0.36468655
440,2026-05-11 16:14:59.764179,0.30379823,0.31538427,0.3808759,0.61911196,-2.4874432,-0.36468655
441,2026-05-11 16:14:59.767295,0.027013771,0.3706314,0.6107064,0.61911196,-2.4874432,-0.36468655
442,2026-05-11 16:14:59.770102,0.027013771,0.3706314,0.6107064,0.61911196,-2.4874432,-0.36468655
443,2026-05-11 16:14:59.772667,0.027013771,0.3706314,0.6107064,0.61911196,-2.4874432,-0.36468655
444,2026-05-11 16:14:59.775226,0.027013771,0.3706314,0.6107064,0.61911196,-2.4874432,-0.36468655
445,2026-05-11 16:14:59.777771,0.027013771,0.3706314,0.6107064,0.61911196,-2.4874432,-0.36468655
446,2026-05-11 16:14:59.780437,0.027013771,0.3706314,0.6107064,0.61911196,-2.4874432,-0.36468655
447,2026-05-11 16:14:59.783301,0.027013771,0.3706314,0.6107064,0.61911196,-2.4874432,-0.36468655
448,2026-05-11 16:14:59.785946,0.027013771,0.3706314,0.6107064,0.61911196,-2.4874432,-0.36468655
449,2026-05-11 16:14:59.788507,0.027013771,0.3706314,0.6107064,0.61911196,-2.4874432,-0.36468655
450,2026-05-11 16:14:59.791071,0.027013771,0.3706314,0.6107064,0.61911196,-2.4874432,-0.36468655
451,2026-05-11 16:14:59.793825,0.027013771,0.3706314,0.6107064,0.61911196,-2.4874432,-0.36468655
452,2026-05-11 16:14:59.796400,0.027013771,0.3706314,0.6107064,0.61911196,-2.4874432,-0.36468655
453,2026-05-11 16:14:59.799373,0.027013771,0.3706314,0.6107064,0.61911196,-2.4874432,-0.36468655
454,2026-05-11 16:14:59.802152,0.027013771,0.3706314,0.6107064,0.61911196,-2.4874432,-0.36468655
455,2026-05-11 16:14:59.804723,0.027013771,0.3706314,0.6107064,0.61911196,-2.4874432,-0.36468655
456,2026-05-11 16:14:59.807319,0.027013771,0.3706314,0.6107064,0.61911196,-2.4874432,-0.36468655
457,2026-05-11 16:14:59.809931,0.027013771,0.3706314,0.6107064,0.61911196,-2.4874432,-0.36468655
458,2026-05-11 16:14:59.812477,0.027013771,0.3706314,0.6107064,0.61911196,-2.4874432,-0.36468655
459,2026-05-11 16:14:59.815453,0.027013771,0.3706314,0.6107064,0.61911196,-2.4874432,-0.36468655
460,2026-05-11 16:14:59.818338,0.027013771,0.3706314,0.6107064,0.61911196,-2.4874432,-0.36468655
461,2026-05-11 16:14:59.821245,0.027013771,0.3706314,0.6107064,0.61911196,-2.4874432,-0.36468655
462,2026-05-11 16:14:59.823946,0.027013771,0.3706314,0.6107064,0.61911196,-2.4874432,-0.36468655
463,2026-05-11 16:14:59.826682,0.027013771,0.3706314,0.6107064,0.61911196,-2.4874432,-0.36468655
464,2026-05-11 16:14:59.829239,0.027013771,0.3706314,0.6107064,0.61911196,-2.4874432,-0.36468655
465,2026-05-11 16:14:59.831960,0.027013771,0.3706314,0.6107064,0.61911196,-2.4874432,-0.36468655
466,2026-05-11 16:14:59.834912,0.027013771,0.3706314,0.6107064,0.61911196,-2.4874432,-0.36468655
467,2026-05-11 16:14:59.837702,0.027013771,0.3706314,0.6107064,0.61911196,-2.4874432,-0.36468655
468,2026-05-11 16:14:59.840416,0.027013771,0.3706314,0.6107064,0.61911196,-2.4874432,-0.36468655
469,2026-05-11 16:14:59.843060,0.027013771,0.3706314,0.6107064,0.61911196,-2.4874432,-0.36468655
470,2026-05-11 16:14:59.845617,0.027013771,0.3706314,0.6107064,0.61911196,-2.4874432,-0.36468655
471,2026-05-11 16:14:59.848294,0.027013771,0.3706314,0.6107064,0.61911196,-2.4874432,-0.36468655
472,2026-05-11 16:14:59.851132,0.027013771,0.3706314,0.6107064,0.61911196,-2.4874432,-0.36468655
473,2026-05-11 16:14:59.853773,0.027013771,0.3706314,0.6107064,0.61911196,-2.4874432,-0.36468655
474,2026-05-11 16:14:59.856307,0.027013771,0.3706314,0.6107064,0.61911196,-2.4874432,-0.36468655
475,2026-05-11 16:14:59.858826,0.027013771,0.3706314,0.6107064,0.61911196,-2.4874432,-0.36468655
476,2026-05-11 16:14:59.861488,0.027013771,0.3706314,0.6107064,0.61911196,-2.4874432,-0.36468655
477,2026-05-11 16:14:59.864029,0.027013771,0.3706314,0.6107064,0.61911196,-2.4874432,-0.36468655
478,2026-05-11 16:14:59.867182,0.027013771,0.3706314,0.6107064,0.61911196,-2.4874432,-0.36468655
479,2026-05-11 16:14:59.869914,0.027013771,0.3706314,0.6107064,0.61911196,-2.4874432,-0.36468655
480,2026-05-11 16:14:59.872591,0.027013771,0.3706314,0.6107064,0.61911196,-2.4874432,-0.36468655
481,2026-05-11 16:14:59.875271,0.027013771,0.3706314,0.6107064,0.61911196,-2.4874432,-0.36468655
482,2026-05-11 16:14:59.877860,0.027013771,0.3706314,0.6107064,0.61911196,-2.4874432,-0.36468655
483,2026-05-11 16:14:59.880607,0.027013771,0.3706314,0.6107064,0.61911196,-2.4874432,-0.36468655
484,2026-05-11 16:14:59.883429,0.027013771,0.3706314,0.6107064,0.61911196,-2.4874432,-0.36468655
485,2026-05-11 16:14:59.886069,0.027013771,0.3706314,0.6107064,0.61911196,-2.4874432,-0.36468655
486,2026-05-11 16:14:59.888838,0.027013771,0.3706314,0.6107064,0.61911196,-2.4874432,-0.36468655
487,2026-05-11 16:14:59.891428,0.027013771,0.3706314,0.6107064,0.61911196,-2.4874432,-0.36468655
488,2026-05-11 16:14:59.893991,0.027013771,0.3706314,0.6107064,0.61911196,-2.4874432,-0.36468655
489,2026-05-11 16:14:59.896762,0.027013771,0.3706314,0.6107064,0.61911196,-2.4874432,-0.36468655
490,2026-05-11 16:14:59.899716,0.027013771,0.3706314,0.6107064,0.61911196,-2.4874432,-0.36468655
491,2026-05-11 16:14:59.902531,0.027013771,0.3706314,0.6107064,0.61911196,-2.4874432,-0.36468655
492,2026-05-11 16:14:59.905171,0.027013771,0.3706314,0.6107064,0.61911196,-2.4874432,-0.36468655
493,2026-05-11 16:14:59.907746,0.027013771,0.3706314,0.6107064,0.61911196,-2.4874432,-0.36468655
494,2026-05-11 16:14:59.910369,0.027013771,0.3706314,0.6107064,0.61911196,-2.4874432,-0.36468655
495,2026-05-11 16:14:59.912904,0.027013771,0.3706314,0.6107064,0.61911196,-2.4874432,-0.36468655
496,2026-05-11 16:14:59.915887,0.027013771,0.3706314,0.6107064,0.61911196,-2.4874432,-0.36468655
497,2026-05-11 16:14:59.918560,0.027013771,0.3706314,0.6107064,0.61911196,-2.4874432,-0.36468655
498,2026-05-11 16:14:59.921144,0.027013771,0.3706314,0.6107064,0.61911196,-2.4874432,-0.36468655
499,2026-05-11 16:14:59.923970,0.027013771,0.3706314,0.6107064,0.61911196,-2.4874432,-0.36468655
500,2026-05-11 16:14:59.926692,0.027013771,0.3706314,0.6107064,0.61911196,-2.4874432,-0.36468655
501,2026-05-11 16:14:59.929419,0.027013771,0.3706314,0.6107064,0.61911196,-2.4874432,-0.36468655
502,2026-05-11 16:14:59.932220,-0.087992944,0.35782576,0.55667883,0.61911196,-2.4874432,-0.36468655
503,2026-05-11 16:14:59.935322,-0.087992944,0.35782576,0.55667883,0.61911196,-2.4874432,-0.36468655
504,2026-05-11 16:14:59.937967,-0.087992944,0.35782576,0.55667883,0.61911196,-2.4874432,-0.36468655
505,2026-05-11 16:14:59.940699,-0.087992944,0.35782576,0.55667883,0.61911196,-2.4874432,-0.36468655
506,2026-05-11 16:14:59.943286,-0.087992944,0.35782576,0.55667883,0.61911196,-2.4874432,-0.36468655
507,2026-05-11 16:14:59.946050,-0.087992944,0.35782576,0.55667883,0.61911196,-2.4874432,-0.36468655
508,2026-05-11 16:14:59.948788,-0.087992944,0.35782576,0.55667883,0.61911196,-2.4874432,-0.36468655
509,2026-05-11 16:14:59.951980,-0.087992944,0.35782576,0.55667883,0.61911196,-2.4874432,-0.36468655
510,2026-05-11 16:14:59.954595,-0.087992944,0.35782576,0.55667883,0.61911196,-2.4874432,-0.36468655
511,2026-05-11 16:14:59.957287,-0.087992944,0.35782576,0.55667883,0.61911196,-2.4874432,-0.36468655
512,2026-05-11 16:14:59.959879,-0.087992944,0.35782576,0.55667883,0.61911196,-2.4874432,-0.36468655
513,2026-05-11 16:14:59.962673,-0.087992944,0.35782576,0.55667883,0.61911196,-2.4874432,-0.36468655
514,2026-05-11 16:14:59.965416,-0.087992944,0.35782576,0.55667883,0.61911196,-2.4874432,-0.36468655
515,2026-05-11 16:14:59.968533,-0.087992944,0.35782576,0.55667883,0.49953505,-2.4301746,-0.34437528
516,2026-05-11 16:14:59.971283,-0.087992944,0.35782576,0.55667883,0.49953505,-2.4301746,-0.34437528
517,2026-05-11 16:14:59.973878,-0.087992944,0.35782576,0.55667883,0.49953505,-2.4301746,-0.34437528
518,2026-05-11 16:14:59.976479,-0.087992944,0.35782576,0.55667883,0.49953505,-2.4301746,-0.34437528
519,2026-05-11 16:14:59.979162,-0.087992944,0.35782576,0.55667883,0.345597,-2.134516,-0.07376198
520,2026-05-11 16:14:59.981763,-0.087992944,0.35782576,0.55667883,0.345597,-2.134516,-0.07376198
521,2026-05-11 16:14:59.984965,-0.087992944,0.35782576,0.55667883,0.345597,-2.134516,-0.07376198
522,2026-05-11 16:14:59.987580,-0.087992944,0.35782576,0.55667883,0.345597,-2.134516,-0.07376198
523,2026-05-11 16:14:59.990182,-0.087992944,0.35782576,0.55667883,0.345597,-2.134516,-0.07376198
524,2026-05-11 16:14:59.992742,-0.087992944,0.35782576,0.55667883,0.345597,-2.134516,-0.07376198
525,2026-05-11 16:14:59.995493,-0.087992944,0.35782576,0.55667883,0.345597,-2.134516,-0.07376198
526,2026-05-11 16:14:59.998117,-0.087992944,0.35782576,0.55667883,0.345597,-2.134516,-0.07376198
527,2026-05-11 16:15:00.001390,-0.087992944,0.35782576,0.55667883,0.345597,-2.134516,-0.07376198
528,2026-05-11 16:15:00.004159,-0.087992944,0.35782576,0.55667883,0.345597,-2.134516,-0.07376198
529,2026-05-11 16:15:00.006839,-0.087992944,0.35782576,0.55667883,0.345597,-2.134516,-0.07376198
530,2026-05-11 16:15:00.009512,-0.087992944,0.35782576,0.55667883,0.345597,-2.134516,-0.07376198
531,2026-05-11 16:15:00.012115,-0.087992944,0.35782576,0.55667883,0.345597,-2.134516,-0.07376198
532,2026-05-11 16:15:00.014873,-0.087992944,0.35782576,0.55667883,0.345597,-2.134516,-0.07376198
533,2026-05-11 16:15:00.017951,-0.087992944,0.35782576,0.55667883,0.345597,-2.134516,-0.07376198
534,2026-05-11 16:15:00.020722,-0.087992944,0.35782576,0.55667883,0.345597,-2.134516,-0.07376198
535,2026-05-11 16:15:00.023449,-0.087992944,0.35782576,0.55667883,0.345597,-2.134516,-0.07376198
536,2026-05-11 16:15:00.026099,-0.087992944,0.35782576,0.55667883,0.345597,-2.134516,-0.07376198
537,2026-05-11 16:15:00.028663,-0.087992944,0.35782576,0.55667883,0.345597,-2.134516,-0.07376198
538,2026-05-11 16:15:00.031362,-0.087992944,0.35782576,0.55667883,0.345597,-2.134516,-0.07376198
539,2026-05-11 16:15:00.034279,-0.20702426,0.3009322,0.56527686,0.345597,-2.134516,-0.07376198
540,2026-05-11 16:15:00.037071,-0.20702426,0.3009322,0.56527686,0.345597,-2.134516,-0.07376198
541,2026-05-11 16:15:00.039756,-0.20702426,0.3009322,0.56527686,0.345597,-2.134516,-0.07376198
542,2026-05-11 16:15:00.042381,-0.20702426,0.3009322,0.56527686,0.345597,-2.134516,-0.07376198
543,2026-05-11 16:15:00.044930,-0.20702426,0.3009322,0.56527686,0.345597,-2.134516,-0.07376198
544,2026-05-11 16:15:00.047484,-0.20702426,0.3009322,0.56527686,0.345597,-2.134516,-0.07376198
545,2026-05-11 16:15:00.050380,-0.20702426,0.3009322,0.56527686,0.345597,-2.134516,-0.07376198
546,2026-05-11 16:15:00.053079,-0.20702426,0.3009322,0.56527686,0.345597,-2.134516,-0.07376198
547,2026-05-11 16:15:00.055693,-0.20702426,0.3009322,0.56527686,0.345597,-2.134516,-0.07376198
548,2026-05-11 16:15:00.058246,-0.20702426,0.3009322,0.56527686,0.345597,-2.134516,-0.07376198
549,2026-05-11 16:15:00.060990,-0.20702426,0.3009322,0.56527686,0.345597,-2.134516,-0.07376198
550,2026-05-11 16:15:00.063577,-0.20702426,0.3009322,0.56527686,0.345597,-2.134516,-0.07376198
551,2026-05-11 16:15:00.066680,-0.20702426,0.3009322,0.56527686,0.345597,-2.134516,-0.07376198
552,2026-05-11 16:15:00.069606,-0.20702426,0.3009322,0.56527686,0.345597,-2.134516,-0.07376198
553,2026-05-11 16:15:00.072304,-0.20702426,0.3009322,0.56527686,0.345597,-2.134516,-0.07376198
554,2026-05-11 16:15:00.074904,-0.20702426,0.3009322,0.56527686,0.345597,-2.134516,-0.07376198
555,2026-05-11 16:15:00.077671,-0.20702426,0.3009322,0.56527686,0.345597,-2.134516,-0.07376198
556,2026-05-11 16:15:00.080216,-0.20702426,0.3009322,0.56527686,0.345597,-2.134516,-0.07376198
557,2026-05-11 16:15:00.083623,-0.29599288,0.2587346,0.6275976,0.2695443,-1.5587754,0.25457808
558,2026-05-11 16:15:00.086547,-0.29599288,0.2587346,0.6275976,0.2695443,-1.5587754,0.25457808
559,2026-05-11 16:15:00.089146,-0.29599288,0.2587346,0.6275976,0.2695443,-1.5587754,0.25457808
560,2026-05-11 16:15:00.091720,-0.29599288,0.2587346,0.6275976,0.2695443,-1.5587754,0.25457808
561,2026-05-11 16:15:00.094441,-0.29599288,0.2587346,0.6275976,0.2695443,-1.5587754,0.25457808
562,2026-05-11 16:15:00.096992,-0.29599288,0.2587346,0.6275976,0.2695443,-1.5587754,0.25457808
563,2026-05-11 16:15:00.100144,-0.29599288,0.2587346,0.6275976,0.2695443,-1.5587754,0.25457808
564,2026-05-11 16:15:00.102952,-0.29599288,0.2587346,0.6275976,0.2695443,-1.5587754,0.25457808
565,2026-05-11 16:15:00.105649,-0.29599288,0.2587346,0.6275976,0.2695443,-1.5587754,0.25457808
566,2026-05-11 16:15:00.108447,-0.29599288,0.2587346,0.6275976,0.2695443,-1.5587754,0.25457808
567,2026-05-11 16:15:00.111024,-0.29599288,0.2587346,0.6275976,0.2695443,-1.5587754,0.25457808
568,2026-05-11 16:15:00.113730,-0.29599288,0.2587346,0.6275976,0.2695443,-1.5587754,0.25457808
569,2026-05-11 16:15:00.116696,-0.29599288,0.2587346,0.6275976,0.2695443,-1.5587754,0.25457808
570,2026-05-11 16:15:00.119446,-0.29599288,0.2587346,0.6275976,0.2695443,-1.5587754,0.25457808
571,2026-05-11 16:15:00.122023,-0.29599288,0.2587346,0.6275976,0.2695443,-1.5587754,0.25457808
572,2026-05-11 16:15:00.124599,-0.29599288,0.2587346,0.6275976,0.2695443,-1.5587754,0.25457808
573,2026-05-11 16:15:00.127453,-0.30629835,0.24714857,0.6650388,0.2695443,-1.5587754,0.25457808
574,2026-05-11 16:15:00.130057,-0.30629835,0.24714857,0.6650388,0.2695443,-1.5587754,0.25457808
575,2026-05-11 16:15:00.133185,-0.30629835,0.24714857,0.6650388,0.2695443,-1.5587754,0.25457808
576,2026-05-11 16:15:00.135894,-0.30629835,0.24714857,0.6650388,0.2695443,-1.5587754,0.25457808
577,2026-05-11 16:15:00.138557,-0.30629835,0.24714857,0.6650388,0.2695443,-1.5587754,0.25457808
578,2026-05-11 16:15:00.141301,-0.30629835,0.24714857,0.6650388,0.2695443,-1.5587754,0.25457808
579,2026-05-11 16:15:00.143880,-0.30629835,0.24714857,0.6650388,0.2695443,-1.5587754,0.25457808
580,2026-05-11 16:15:00.146568,-0.30629835,0.24714857,0.6650388,0.2695443,-1.5587754,0.25457808
581,2026-05-11 16:15:00.149579,-0.30629835,0.24714857,0.6650388,0.2695443,-1.5587754,0.25457808
582,2026-05-11 16:15:00.152364,-0.30629835,0.24714857,0.6650388,0.3481932,-0.7244862,0.86101454
583,2026-05-11 16:15:00.155065,-0.30629835,0.24714857,0.6650388,0.3481932,-0.7244862,0.86101454
584,2026-05-11 16:15:00.157738,-0.30629835,0.24714857,0.6650388,0.3481932,-0.7244862,0.86101454
585,2026-05-11 16:15:00.160690,-0.30629835,0.24714857,0.6650388,0.3481932,-0.7244862,0.86101454
586,2026-05-11 16:15:00.163532,-0.20330454,0.21458568,0.6648559,0.55665094,-0.64904433,1.26556
587,2026-05-11 16:15:00.166671,-0.20330454,0.21458568,0.6648559,0.55665094,-0.64904433,1.26556
588,2026-05-11 16:15:00.169527,-0.20330454,0.21458568,0.6648559,0.55665094,-0.64904433,1.26556
589,2026-05-11 16:15:00.172262,-0.20330454,0.21458568,0.6648559,0.55665094,-0.64904433,1.26556
590,2026-05-11 16:15:00.174850,-0.20330454,0.21458568,0.6648559,0.55665094,-0.64904433,1.26556
591,2026-05-11 16:15:00.177551,-0.20330454,0.21458568,0.6648559,0.55665094,-0.64904433,1.26556
592,2026-05-11 16:15:00.180119,-0.20330454,0.21458568,0.6648559,0.55665094,-0.64904433,1.26556
593,2026-05-11 16:15:00.183109,-0.20330454,0.21458568,0.6648559,0.55665094,-0.64904433,1.26556
594,2026-05-11 16:15:00.186038,-0.20330454,0.21458568,0.6648559,0.55665094,-0.64904433,1.26556
595,2026-05-11 16:15:00.188760,-0.20330454,0.21458568,0.6648559,0.55665094,-0.64904433,1.26556
596,2026-05-11 16:15:00.191456,-0.094456725,0.21239044,0.6492452,0.99265605,-1.0112875,1.3611605
597,2026-05-11 16:15:00.194379,-0.094456725,0.21239044,0.6492452,0.99265605,-1.0112875,1.3611605
598,2026-05-11 16:15:00.197024,-0.094456725,0.21239044,0.6492452,0.99265605,-1.0112875,1.3611605
599,2026-05-11 16:15:00.200256,-0.094456725,0.21239044,0.6492452,0.99265605,-1.0112875,1.3611605
600,2026-05-11 16:15:00.202979,-0.094456725,0.21239044,0.6492452,0.99265605,-1.0112875,1.3611605
601,2026-05-11 16:15:00.205581,-0.094456725,0.21239044,0.6492452,0.99265605,-1.0112875,1.3611605
602,2026-05-11 16:15:00.208375,-0.094456725,0.21239044,0.6492452,0.99265605,-1.0112875,1.3611605
603,2026-05-11 16:15:00.211012,-0.094456725,0.21239044,0.6492452,0.99265605,-1.0112875,1.3611605
604,2026-05-11 16:15:00.213768,-0.094456725,0.21239044,0.6492452,0.99265605,-1.0112875,1.3611605
605,2026-05-11 16:15:00.216772,-0.094456725,0.21239044,0.6492452,0.99265605,-1.0112875,1.3611605
606,2026-05-11 16:15:00.219666,-0.094456725,0.21239044,0.6492452,0.99265605,-1.0112875,1.3611605
607,2026-05-11 16:15:00.222342,-0.094456725,0.21239044,0.6492452,1.4263704,-1.5378532,1.280679
608,2026-05-11 16:15:00.224918,-0.094456725,0.21239044,0.6492452,1.4263704,-1.5378532,1.280679
609,2026-05-11 16:15:00.227706,-0.094456725,0.21239044,0.6492452,1.4263704,-1.5378532,1.280679
610,2026-05-11 16:15:00.230287,-0.094456725,0.21239044,0.6492452,1.4263704,-1.5378532,1.280679
611,2026-05-11 16:15:00.233284,-0.094456725,0.21239044,0.6492452,1.4263704,-1.5378532,1.280679
612,2026-05-11 16:15:00.235942,-0.094456725,0.21239044,0.6492452,1.4263704,-1.5378532,1.280679
613,2026-05-11 16:15:00.238482,-0.094456725,0.21239044,0.6492452,1.4263704,-1.5378532,1.280679
614,2026-05-11 16:15:00.240998,-0.094456725,0.21239044,0.6492452,1.4263704,-1.5378532,1.280679
615,2026-05-11 16:15:00.243690,-0.009085896,0.23391607,0.4358791,1.4263704,-1.5378532,1.280679
616,2026-05-11 16:15:00.246346,-0.009085896,0.23391607,0.4358791,1.4263704,-1.5378532,1.280679
617,2026-05-11 16:15:00.249300,-0.009085896,0.23391607,0.4358791,1.4263704,-1.5378532,1.280679
618,2026-05-11 16:15:00.252206,-0.009085896,0.23391607,0.4358791,1.4263704,-1.5378532,1.280679
619,2026-05-11 16:15:00.254857,-0.009085896,0.23391607,0.4358791,1.4263704,-1.5378532,1.280679
620,2026-05-11 16:15:00.257443,-0.009085896,0.23391607,0.4358791,1.4263704,-1.5378532,1.280679
621,2026-05-11 16:15:00.259924,-0.009085896,0.23391607,0.4358791,1.4263704,-1.5378532,1.280679
622,2026-05-11 16:15:00.262613,-0.009085896,0.23391607,0.4358791,1.4263704,-1.5378532,1.280679
623,2026-05-11 16:15:00.265242,-0.009085896,0.23391607,0.4358791,1.4263704,-1.5378532,1.280679
624,2026-05-11 16:15:00.268611,-0.009085896,0.23391607,0.4358791,1.4263704,-1.5378532,1.280679
625,2026-05-11 16:15:00.271434,-0.009085896,0.23391607,0.4358791,1.4263704,-1.5378532,1.280679
626,2026-05-11 16:15:00.274043,-0.009085896,0.23391607,0.4358791,1.4263704,-1.5378532,1.280679
627,2026-05-11 16:15:00.276673,-0.009085896,0.23391607,0.4358791,1.4263704,-1.5378532,1.280679
628,2026-05-11 16:15:00.279466,-0.009085896,0.23391607,0.4358791,1.4263704,-1.5378532,1.280679
629,2026-05-11 16:15:00.282307,-0.009085896,0.23391607,0.4358791,1.4263704,-1.5378532,1.280679
630,2026-05-11 16:15:00.285518,-0.009085896,0.23391607,0.4358791,1.4263704,-1.5378532,1.280679
631,2026-05-11 16:15:00.288151,-0.009085896,0.23391607,0.4358791,1.4263704,-1.5378532,1.280679
632,2026-05-11 16:15:00.290786,-0.009085896,0.23391607,0.4358791,1.4263704,-1.5378532,1.280679
633,2026-05-11 16:15:00.293399,-0.009085896,0.23391607,0.4358791,1.4263704,-1.5378532,1.280679
634,2026-05-11 16:15:00.296251,-0.009085896,0.23391607,0.4358791,1.4263704,-1.5378532,1.280679
635,2026-05-11 16:15:00.299479,0.21269535,0.2037314,0.12756842,1.4263704,-1.5378532,1.280679
636,2026-05-11 16:15:00.302338,0.21269535,0.2037314,0.12756842,1.4263704,-1.5378532,1.280679
637,2026-05-11 16:15:00.305248,0.21269535,0.2037314,0.12756842,1.5106697,-1.8660406,1.2185235
638,2026-05-11 16:15:00.307999,0.21269535,0.2037314,0.12756842,1.5106697,-1.8660406,1.2185235
639,2026-05-11 16:15:00.310651,0.21269535,0.2037314,0.12756842,1.5106697,-1.8660406,1.2185235
640,2026-05-11 16:15:00.313233,0.21269535,0.2037314,0.12756842,1.5106697,-1.8660406,1.2185235
641,2026-05-11 16:15:00.316154,0.21269535,0.2037314,0.12756842,1.5106697,-1.8660406,1.2185235
642,2026-05-11 16:15:00.319189,0.21269535,0.2037314,0.12756842,1.5106697,-1.8660406,1.2185235
643,2026-05-11 16:15:00.321791,0.21269535,0.2037314,0.12756842,1.5106697,-1.8660406,1.2185235
644,2026-05-11 16:15:00.324657,0.1343371,0.22708642,0.022135438,1.5106697,-1.8660406,1.2185235
645,2026-05-11 16:15:00.327321,0.1343371,0.22708642,0.022135438,1.5106697,-1.8660406,1.2185235
646,2026-05-11 16:15:00.330017,0.1343371,0.22708642,0.022135438,1.5106697,-1.8660406,1.2185235
647,2026-05-11 16:15:00.333082,0.1343371,0.22708642,0.022135438,1.5106697,-1.8660406,1.2185235
648,2026-05-11 16:15:00.335976,0.19446257,0.21141478,-0.018537667,1.217149,-2.2116377,0.95814216
649,2026-05-11 16:15:00.338537,0.19446257,0.21141478,-0.018537667,1.217149,-2.2116377,0.95814216
650,2026-05-11 16:15:00.341356,0.19446257,0.21141478,-0.018537667,1.217149,-2.2116377,0.95814216
651,2026-05-11 16:15:00.343945,0.19446257,0.21141478,-0.018537667,1.217149,-2.2116377,0.95814216
652,2026-05-11 16:15:00.346508,0.19446257,0.21141478,-0.018537667,1.217149,-2.2116377,0.95814216
653,2026-05-11 16:15:00.349551,0.19446257,0.21141478,-0.018537667,1.217149,-2.2116377,0.95814216
654,2026-05-11 16:15:00.352450,0.19446257,0.21141478,-0.018537667,1.217149,-2.2116377,0.95814216
655,2026-05-11 16:15:00.355078,0.19446257,0.21141478,-0.018537667,1.217149,-2.2116377,0.95814216
656,2026-05-11 16:15:00.357771,0.19446257,0.21141478,-0.018537667,1.217149,-2.2116377,0.95814216
657,2026-05-11 16:15:00.360350,0.19446257,0.21141478,-0.018537667,1.217149,-2.2116377,0.95814216
658,2026-05-11 16:15:00.362907,0.19446257,0.21141478,-0.018537667,1.217149,-2.2116377,0.95814216
659,2026-05-11 16:15:00.365833,0.19446257,0.21141478,-0.018537667,1.217149,-2.2116377,0.95814216
660,2026-05-11 16:15:00.368655,0.19446257,0.21141478,-0.018537667,1.217149,-2.2116377,0.95814216
661,2026-05-11 16:15:00.371255,0.19446257,0.21141478,-0.018537667,1.217149,-2.2116377,0.95814216
662,2026-05-11 16:15:00.373954,0.19446257,0.21141478,-0.018537667,1.217149,-2.2116377,0.95814216
663,2026-05-11 16:15:00.376559,0.19446257,0.21141478,-0.018537667,1.217149,-2.2116377,0.95814216
664,2026-05-11 16:15:00.379207,0.19446257,0.21141478,-0.018537667,1.217149,-2.2116377,0.95814216
665,2026-05-11 16:15:00.381885,0.19446257,0.21141478,-0.018537667,1.217149,-2.2116377,0.95814216
666,2026-05-11 16:15:00.385280,0.19446257,0.21141478,-0.018537667,1.217149,-2.2116377,0.95814216
667,2026-05-11 16:15:00.388294,0.19446257,0.21141478,-0.018537667,1.217149,-2.2116377,0.95814216
668,2026-05-11 16:15:00.390970,0.19446257,0.21141478,-0.018537667,1.217149,-2.2116377,0.95814216
669,2026-05-11 16:15:00.393540,0.19446257,0.21141478,-0.018537667,1.217149,-2.2116377,0.95814216
670,2026-05-11 16:15:00.396281,0.19446257,0.21141478,-0.018537667,1.217149,-2.2116377,0.95814216
671,2026-05-11 16:15:00.399349,0.19446257,0.21141478,-0.018537667,1.217149,-2.2116377,0.95814216
672,2026-05-11 16:15:00.402348,0.19446257,0.21141478,-0.018537667,1.0294607,-2.5445592,0.88346386
673,2026-05-11 16:15:00.405037,0.19446257,0.21141478,-0.018537667,1.0294607,-2.5445592,0.88346386
674,2026-05-11 16:15:00.413303,0.19446257,0.21141478,-0.018537667,1.0294607,-2.5445592,0.88346386
675,2026-05-11 16:15:00.433433,0.19446257,0.21141478,-0.018537667,1.0294607,-2.5445592,0.88346386
676,2026-05-11 16:15:00.436808,0.19446257,0.21141478,-0.018537667,1.0294607,-2.5445592,0.88346386
677,2026-05-11 16:15:00.445461,0.19446257,0.21141478,-0.018537667,1.0294607,-2.5445592,0.88346386
678,2026-05-11 16:15:00.448581,0.19446257,0.21141478,-0.018537667,1.0294607,-2.5445592,0.88346386
679,2026-05-11 16:15:00.451531,0.19446257,0.21141478,-0.018537667,1.0294607,-2.5445592,0.88346386
680,2026-05-11 16:15:00.454202,0.19446257,0.21141478,-0.018537667,1.0294607,-2.5445592,0.88346386
681,2026-05-11 16:15:00.456777,0.19446257,0.21141478,-0.018537667,1.0294607,-2.5445592,0.88346386
682,2026-05-11 16:15:00.459577,0.19446257,0.21141478,-0.018537667,1.0294607,-2.5445592,0.88346386
683,2026-05-11 16:15:00.462180,0.19446257,0.21141478,-0.018537667,1.0294607,-2.5445592,0.88346386
684,2026-05-11 16:15:00.464768,0.19446257,0.21141478,-0.018537667,1.0294607,-2.5445592,0.88346386
685,2026-05-11 16:15:00.467821,0.19446257,0.21141478,-0.018537667,1.0294607,-2.5445592,0.88346386
686,2026-05-11 16:15:00.470502,0.19446257,0.21141478,-0.018537667,1.0294607,-2.5445592,0.88346386
687,2026-05-11 16:15:00.473078,0.19446257,0.21141478,-0.018537667,1.0294607,-2.5445592,0.88346386
688,2026-05-11 16:15:00.475847,0.19446257,0.21141478,-0.018537667,1.0294607,-2.5445592,0.88346386
689,2026-05-11 16:15:00.478471,0.19446257,0.21141478,-0.018537667,1.0294607,-2.5445592,0.88346386
690,2026-05-11 16:15:00.481060,0.19446257,0.21141478,-0.018537667,1.0294607,-2.5445592,0.88346386
691,2026-05-11 16:15:00.484174,0.19446257,0.21141478,-0.018537667,1.0294607,-2.5445592,0.88346386
692,2026-05-11 16:15:00.486917,0.11122601,0.30843264,-0.11549455,1.0294607,-2.5445592,0.88346386
693,2026-05-11 16:15:00.489793,0.11122601,0.30843264,-0.11549455,1.0294607,-2.5445592,0.88346386
694,2026-05-11 16:15:00.492373,0.11122601,0.30843264,-0.11549455,1.0294607,-2.5445592,0.88346386
695,2026-05-11 16:15:00.494920,0.11122601,0.30843264,-0.11549455,1.0294607,-2.5445592,0.88346386
696,2026-05-11 16:15:00.497635,0.11122601,0.30843264,-0.11549455,1.0294607,-2.5445592,0.88346386
697,2026-05-11 16:15:00.500493,0.11122601,0.30843264,-0.11549455,1.0294607,-2.5445592,0.88346386
698,2026-05-11 16:15:00.503379,0.11122601,0.30843264,-0.11549455,1.0294607,-2.5445592,0.88346386
699,2026-05-11 16:15:00.506024,0.11122601,0.30843264,-0.11549455,1.0294607,-2.5445592,0.88346386
700,2026-05-11 16:15:00.508610,0.11122601,0.30843264,-0.11549455,1.0294607,-2.5445592,0.88346386
701,2026-05-11 16:15:00.511395,0.11122601,0.30843264,-0.11549455,1.0294607,-2.5445592,0.88346386
702,2026-05-11 16:15:00.513954,0.11122601,0.30843264,-0.11549455,1.0294607,-2.5445592,0.88346386
703,2026-05-11 16:15:00.516935,0.11122601,0.30843264,-0.11549455,1.0294607,-2.5445592,0.88346386
704,2026-05-11 16:15:00.519590,0.11122601,0.30843264,-0.11549455,1.0294607,-2.5445592,0.88346386
705,2026-05-11 16:15:00.522370,0.11122601,0.30843264,-0.11549455,1.0294607,-2.5445592,0.88346386
706,2026-05-11 16:15:00.525145,0.11122601,0.30843264,-0.11549455,1.0294607,-2.5445592,0.88346386
707,2026-05-11 16:15:00.527886,0.11122601,0.30843264,-0.11549455,1.0294607,-2.5445592,0.88346386
708,2026-05-11 16:15:00.530560,0.11122601,0.30843264,-0.11549455,1.0294607,-2.5445592,0.88346386
709,2026-05-11 16:15:00.533766,0.11122601,0.30843264,-0.11549455,1.0294607,-2.5445592,0.88346386
710,2026-05-11 16:15:00.536506,0.11122601,0.30843264,-0.11549455,1.0294607,-2.5445592,0.88346386
711,2026-05-11 16:15:00.539094,0.11122601,0.30843264,-0.11549455,1.0294607,-2.5445592,0.88346386
712,2026-05-11 16:15:00.541850,0.11122601,0.30843264,-0.11549455,1.0294607,-2.5445592,0.88346386
713,2026-05-11 16:15:00.544438,0.11122601,0.30843264,-0.11549455,1.0294607,-2.5445592,0.88346386
714,2026-05-11 16:15:00.547220,0.11122601,0.30843264,-0.11549455,0.31764993,-3.4710891,0.7154759
715,2026-05-11 16:15:00.550278,0.11122601,0.30843264,-0.11549455,0.31764993,-3.4710891,0.7154759
716,2026-05-11 16:15:00.553027,0.11122601,0.30843264,-0.11549455,0.31764993,-3.4710891,0.7154759
717,2026-05-11 16:15:00.555777,0.11122601,0.30843264,-0.11549455,0.31764993,-3.4710891,0.7154759
718,2026-05-11 16:15:00.558582,0.11122601,0.30843264,-0.11549455,0.31764993,-3.4710891,0.7154759
719,2026-05-11 16:15:00.561203,0.11122601,0.30843264,-0.11549455,0.31764993,-3.4710891,0.7154759
720,2026-05-11 16:15:00.563964,0.11122601,0.30843264,-0.11549455,0.31764993,-3.4710891,0.7154759
721,2026-05-11 16:15:00.567122,0.11122601,0.30843264,-0.11549455,0.31764993,-3.4710891,0.7154759
722,2026-05-11 16:15:00.569883,0.11122601,0.30843264,-0.11549455,0.31764993,-3.4710891,0.7154759
723,2026-05-11 16:15:00.572608,0.11122601,0.30843264,-0.11549455,0.31764993,-3.4710891,0.7154759
724,2026-05-11 16:15:00.575255,0.11122601,0.30843264,-0.11549455,0.31764993,-3.4710891,0.7154759
725,2026-05-11 16:15:00.577805,0.11122601,0.30843264,-0.11549455,0.31764993,-3.4710891,0.7154759
726,2026-05-11 16:15:00.580548,0.11122601,0.30843264,-0.11549455,0.31764993,-3.4710891,0.7154759
727,2026-05-11 16:15:00.583571,0.11122601,0.30843264,-0.11549455,0.31764993,-3.4710891,0.7154759
728,2026-05-11 16:15:00.586426,0.11122601,0.30843264,-0.11549455,0.31764993,-3.4710891,0.7154759
729,2026-05-11 16:15:00.589063,0.11122601,0.30843264,-0.11549455,0.31764993,-3.4710891,0.7154759
730,2026-05-11 16:15:00.591672,0.11122601,0.30843264,-0.11549455,0.31764993,-3.4710891,0.7154759
731,2026-05-11 16:15:00.594586,0.11122601,0.30843264,-0.11549455,0.31764993,-3.4710891,0.7154759
732,2026-05-11 16:15:00.597426,0.11122601,0.30843264,-0.11549455,0.31764993,-3.4710891,0.7154759
733,2026-05-11 16:15:00.600510,0.11122601,0.30843264,-0.11549455,-0.32910365,-3.9099958,0.70646566
734,2026-05-11 16:15:00.603210,0.11122601,0.30843264,-0.11549455,-0.32910365,-3.9099958,0.70646566
735,2026-05-11 16:15:00.605792,0.11122601,0.30843264,-0.11549455,-0.32910365,-3.9099958,0.70646566
736,2026-05-11 16:15:00.608558,-0.005366167,0.3231896,-0.14366692,-0.32910365,-3.9099958,0.70646566
737,2026-05-11 16:15:00.611249,-0.005366167,0.3231896,-0.14366692,-0.32910365,-3.9099958,0.70646566
738,2026-05-11 16:15:00.613838,-0.005366167,0.3231896,-0.14366692,-0.32910365,-3.9099958,0.70646566
739,2026-05-11 16:15:00.617129,-0.005366167,0.3231896,-0.14366692,-0.32910365,-3.9099958,0.70646566
740,2026-05-11 16:15:00.619882,-0.005366167,0.3231896,-0.14366692,-0.32910365,-3.9099958,0.70646566
741,2026-05-11 16:15:00.622515,-0.005366167,0.3231896,-0.14366692,-0.32910365,-3.9099958,0.70646566
742,2026-05-11 16:15:00.625347,-0.005366167,0.3231896,-0.14366692,-0.9502009,-4.0613375,0.9114109
743,2026-05-11 16:15:00.628100,-0.020245085,0.32270175,-0.03811198,-0.9502009,-4.0613375,0.9114109
744,2026-05-11 16:15:00.630827,-0.020245085,0.32270175,-0.03811198,-0.9502009,-4.0613375,0.9114109
745,2026-05-11 16:15:00.633758,-0.020245085,0.32270175,-0.03811198,-0.9502009,-4.0613375,0.9114109
746,2026-05-11 16:15:00.636523,-0.020245085,0.32270175,-0.03811198,-0.9502009,-4.0613375,0.9114109
747,2026-05-11 16:15:00.639218,-0.020245085,0.32270175,-0.03811198,-0.9502009,-4.0613375,0.9114109
748,2026-05-11 16:15:00.641781,-0.020245085,0.32270175,-0.03811198,-0.9502009,-4.0613375,0.9114109
749,2026-05-11 16:15:00.644553,-0.020245085,0.32270175,-0.03811198,-0.9502009,-4.0613375,0.9114109
750,2026-05-11 16:15:00.647130,-0.020245085,0.32270175,-0.03811198,-0.9502009,-4.0613375,0.9114109
751,2026-05-11 16:15:00.650068,-0.020245085,0.32270175,-0.03811198,-0.9502009,-4.0613375,0.9114109
752,2026-05-11 16:15:00.652834,-0.020245085,0.32270175,-0.03811198,-0.9502009,-4.0613375,0.9114109
753,2026-05-11 16:15:00.655419,-0.020245085,0.32270175,-0.03811198,-0.9502009,-4.0613375,0.9114109
754,2026-05-11 16:15:00.657990,-0.020245085,0.32270175,-0.03811198,-0.9502009,-4.0613375,0.9114109
755,2026-05-11 16:15:00.660725,-0.020245085,0.32270175,-0.03811198,-0.9502009,-4.0613375,0.9114109
756,2026-05-11 16:15:00.663295,-0.020245085,0.32270175,-0.03811198,-0.9502009,-4.0613375,0.9114109
757,2026-05-11 16:15:00.666172,-0.020245085,0.32270175,-0.03811198,-0.9502009,-4.0613375,0.9114109
758,2026-05-11 16:15:00.669155,-0.020245085,0.32270175,-0.03811198,-0.9502009,-4.0613375,0.9114109
759,2026-05-11 16:15:00.671940,-0.020245085,0.32270175,-0.03811198,-0.9502009,-4.0613375,0.9114109
760,2026-05-11 16:15:00.674647,-0.020245085,0.32270175,-0.03811198,-0.9502009,-4.0613375,0.9114109
761,2026-05-11 16:15:00.677231,-0.020245085,0.32270175,-0.03811198,-0.9502009,-4.0613375,0.9114109
762,2026-05-11 16:15:00.679915,-0.020245085,0.32270175,-0.03811198,-0.9502009,-4.0613375,0.9114109
763,2026-05-11 16:15:00.683010,0.16354613,0.3047739,0.4552705,-1.5447255,-3.2264376,1.5377005
764,2026-05-11 16:15:00.685811,0.16354613,0.3047739,0.4552705,-1.5447255,-3.2264376,1.5377005
765,2026-05-11 16:15:00.688503,0.16354613,0.3047739,0.4552705,-1.5447255,-3.2264376,1.5377005
766,2026-05-11 16:15:00.691205,0.16354613,0.3047739,0.4552705,-1.5447255,-3.2264376,1.5377005
767,2026-05-11 16:15:00.693942,0.16354613,0.3047739,0.4552705,-1.5447255,-3.2264376,1.5377005
768,2026-05-11 16:15:00.696690,0.70266294,0.078785084,0.775716,-2.0905335,-1.6948457,1.511128
769,2026-05-11 16:15:00.699925,0.70266294,0.078785084,0.775716,-2.0905335,-1.6948457,1.511128
770,2026-05-11 16:15:00.702726,0.70266294,0.078785084,0.775716,-2.0905335,-1.6948457,1.511128
771,2026-05-11 16:15:00.705339,0.70266294,0.078785084,0.775716,-2.0905335,-1.6948457,1.511128
772,2026-05-11 16:15:00.708113,0.68674743,0.14994776,1.1146992,-2.0905335,-1.6948457,1.511128
773,2026-05-11 16:15:00.710941,0.68674743,0.14994776,1.1146992,-2.0905335,-1.6948457,1.511128
774,2026-05-11 16:15:00.713657,0.68674743,0.14994776,1.1146992,-2.0905335,-1.6948457,1.511128
775,2026-05-11 16:15:00.716735,0.68674743,0.14994776,1.1146992,-2.0905335,-1.6948457,1.511128
776,2026-05-11 16:15:00.719458,0.68674743,0.14994776,1.1146992,-2.0905335,-1.6948457,1.511128
777,2026-05-11 16:15:00.722018,0.68674743,0.14994776,1.1146992,-2.0905335,-1.6948457,1.511128
778,2026-05-11 16:15:00.724648,0.68674743,0.14994776,1.1146992,-2.0905335,-1.6948457,1.511128
779,2026-05-11 16:15:00.727203,0.68674743,0.14994776,1.1146992,-2.0905335,-1.6948457,1.511128
780,2026-05-11 16:15:00.729748,0.68674743,0.14994776,1.1146992,-2.0905335,-1.6948457,1.511128
781,2026-05-11 16:15:00.732745,0.68674743,0.14994776,1.1146992,-2.0905335,-1.6948457,1.511128
782,2026-05-11 16:15:00.735570,0.68674743,0.14994776,1.1146992,-2.0905335,-1.6948457,1.511128
783,2026-05-11 16:15:00.738152,0.68674743,0.14994776,1.1146992,-2.0905335,-1.6948457,1.511128
784,2026-05-11 16:15:00.740754,0.68674743,0.14994776,1.1146992,-2.0905335,-1.6948457,1.511128
785,2026-05-11 16:15:00.743302,0.68674743,0.14994776,1.1146992,-2.0905335,-1.6948457,1.511128
786,2026-05-11 16:15:00.746111,0.68674743,0.14994776,1.1146992,-2.0905335,-1.6948457,1.511128
787,2026-05-11 16:15:00.749552,0.68674743,0.14994776,1.1146992,-1.2565498,-0.66156703,1.2093605
788,2026-05-11 16:15:00.752381,0.68674743,0.14994776,1.1146992,-1.2565498,-0.66156703,1.2093605
789,2026-05-11 16:15:00.754999,0.68674743,0.14994776,1.1146992,-1.2565498,-0.66156703,1.2093605
790,2026-05-11 16:15:00.757679,0.68674743,0.14994776,1.1146992,-1.2565498,-0.66156703,1.2093605
791,2026-05-11 16:15:00.760618,0.5518005,0.19147459,1.2014115,-0.4027129,-0.50625455,1.295798
792,2026-05-11 16:15:00.763294,0.5518005,0.19147459,1.2014115,-0.4027129,-0.50625455,1.295798
793,2026-05-11 16:15:00.766201,0.35245958,0.17787623,1.117809,-0.4027129,-0.50625455,1.295798
794,2026-05-11 16:15:00.769175,0.35245958,0.17787623,1.117809,-0.4027129,-0.50625455,1.295798
795,2026-05-11 16:15:00.771829,0.35245958,0.17787623,1.117809,-0.4027129,-0.50625455,1.295798
796,2026-05-11 16:15:00.774661,0.35245958,0.17787623,1.117809,-0.4027129,-0.50625455,1.295798
797,2026-05-11 16:15:00.777292,0.35245958,0.17787623,1.117809,-0.4027129,-0.50625455,1.295798
798,2026-05-11 16:15:00.780067,0.26330805,0.16659509,0.84139055,0.23777929,-0.7292204,1.617113
799,2026-05-11 16:15:00.783048,0.26330805,0.16659509,0.84139055,0.23777929,-0.7292204,1.617113
800,2026-05-11 16:15:00.785824,0.26330805,0.16659509,0.84139055,0.23777929,-0.7292204,1.617113
801,2026-05-11 16:15:00.788457,0.26330805,0.16659509,0.84139055,0.23777929,-0.7292204,1.617113
802,2026-05-11 16:15:00.791400,0.26330805,0.16659509,0.84139055,0.23777929,-0.7292204,1.617113
803,2026-05-11 16:15:00.794108,0.26330805,0.16659509,0.84139055,0.23777929,-0.7292204,1.617113
804,2026-05-11 16:15:00.796719,0.26330805,0.16659509,0.84139055,0.23777929,-0.7292204,1.617113
805,2026-05-11 16:15:00.799800,0.26330805,0.16659509,0.84139055,0.23777929,-0.7292204,1.617113
806,2026-05-11 16:15:00.802739,0.26330805,0.16659509,0.84139055,0.23777929,-0.7292204,1.617113
807,2026-05-11 16:15:00.805394,0.26330805,0.16659509,0.84139055,0.23777929,-0.7292204,1.617113
808,2026-05-11 16:15:00.808081,0.26330805,0.16659509,0.84139055,0.23777929,-0.7292204,1.617113
809,2026-05-11 16:15:00.810791,0.26330805,0.16659509,0.84139055,0.23777929,-0.7292204,1.617113
810,2026-05-11 16:15:00.813495,0.26330805,0.16659509,0.84139055,0.23777929,-0.7292204,1.617113
811,2026-05-11 16:15:00.817110,0.26330805,0.16659509,0.84139055,0.23777929,-0.7292204,1.617113
812,2026-05-11 16:15:00.819887,0.26330805,0.16659509,0.84139055,0.23777929,-0.7292204,1.617113
813,2026-05-11 16:15:00.822602,0.26330805,0.16659509,0.84139055,0.23777929,-0.7292204,1.617113
814,2026-05-11 16:15:00.825263,0.26330805,0.16659509,0.84139055,0.23777929,-0.7292204,1.617113
815,2026-05-11 16:15:00.827789,0.26330805,0.16659509,0.84139055,0.23777929,-0.7292204,1.617113
816,2026-05-11 16:15:00.830455,0.26330805,0.16659509,0.84139055,0.23777929,-0.7292204,1.617113
817,2026-05-11 16:15:00.833389,0.26330805,0.16659509,0.84139055,0.23777929,-0.7292204,1.617113
818,2026-05-11 16:15:00.836019,0.26330805,0.16659509,0.84139055,0.23777929,-0.7292204,1.617113
819,2026-05-11 16:15:00.838550,0.26330805,0.16659509,0.84139055,0.23777929,-0.7292204,1.617113
820,2026-05-11 16:15:00.841118,0.26330805,0.16659509,0.84139055,0.23777929,-0.7292204,1.617113
821,2026-05-11 16:15:00.843869,0.36313096,0.18653527,0.48252818,0.29871312,-1.0236574,1.7802141
822,2026-05-11 16:15:00.846436,0.36313096,0.18653527,0.48252818,0.29871312,-1.0236574,1.7802141
823,2026-05-11 16:15:00.849588,0.36313096,0.18653527,0.48252818,0.29871312,-1.0236574,1.7802141
824,2026-05-11 16:15:00.852277,0.36313096,0.18653527,0.48252818,0.29871312,-1.0236574,1.7802141
825,2026-05-11 16:15:00.854842,0.36313096,0.18653527,0.48252818,0.29871312,-1.0236574,1.7802141
826,2026-05-11 16:15:00.857575,0.36313096,0.18653527,0.48252818,0.29871312,-1.0236574,1.7802141
827,2026-05-11 16:15:00.860189,0.36313096,0.18653527,0.48252818,0.29871312,-1.0236574,1.7802141
828,2026-05-11 16:15:00.862754,0.36313096,0.18653527,0.48252818,0.29871312,-1.0236574,1.7802141
829,2026-05-11 16:15:00.866019,0.45679495,0.05585692,0.7366893,0.12873985,-1.9497292,2.1207714
830,2026-05-11 16:15:00.868718,0.45679495,0.05585692,0.7366893,0.12873985,-1.9497292,2.1207714
831,2026-05-11 16:15:00.871520,0.45679495,0.05585692,0.7366893,0.12873985,-1.9497292,2.1207714
832,2026-05-11 16:15:00.874166,0.45679495,0.05585692,0.7366893,0.12873985,-1.9497292,2.1207714
833,2026-05-11 16:15:00.876750,0.45679495,0.05585692,0.7366893,0.12873985,-1.9497292,2.1207714
834,2026-05-11 16:15:00.879644,0.45679495,0.05585692,0.7366893,0.12873985,-1.9497292,2.1207714
835,2026-05-11 16:15:00.883098,0.468381,-0.0075004376,0.8310241,1.0398453,-2.6615398,2.4414756
836,2026-05-11 16:15:00.885956,0.468381,-0.0075004376,0.8310241,1.0398453,-2.6615398,2.4414756
837,2026-05-11 16:15:00.888674,0.468381,-0.0075004376,0.8310241,1.0398453,-2.6615398,2.4414756
838,2026-05-11 16:15:00.891446,0.468381,-0.0075004376,0.8310241,1.0398453,-2.6615398,2.4414756
839,2026-05-11 16:15:00.894047,0.468381,-0.0075004376,0.8310241,1.0398453,-2.6615398,2.4414756
840,2026-05-11 16:15:00.896768,0.468381,-0.0075004376,0.8310241,1.0398453,-2.6615398,2.4414756
841,2026-05-11 16:15:00.899750,0.468381,-0.0075004376,0.8310241,1.8605428,-3.1957414,2.6360362
842,2026-05-11 16:15:00.902698,0.45100194,-0.13525179,0.75272685,2.5404358,-3.5934148,2.8151724
843,2026-05-11 16:15:00.905365,0.45100194,-0.13525179,0.75272685,2.5404358,-3.5934148,2.8151724
844,2026-05-11 16:15:00.907955,0.45100194,-0.13525179,0.75272685,2.5404358,-3.5934148,2.8151724
845,2026-05-11 16:15:00.910747,0.45100194,-0.13525179,0.75272685,2.5404358,-3.5934148,2.8151724
846,2026-05-11 16:15:00.913342,0.45100194,-0.13525179,0.75272685,2.5404358,-3.5934148,2.8151724
847,2026-05-11 16:15:00.916214,0.45100194,-0.13525179,0.75272685,2.5404358,-3.5934148,2.8151724
848,2026-05-11 16:15:00.919129,0.45100194,-0.13525179,0.75272685,2.5404358,-3.5934148,2.8151724
849,2026-05-11 16:15:00.921734,0.45100194,-0.13525179,0.75272685,2.5404358,-3.5934148,2.8151724
850,2026-05-11 16:15:00.924338,0.45100194,-0.13525179,0.75272685,2.5404358,-3.5934148,2.8151724
851,2026-05-11 16:15:00.927016,0.45100194,-0.13525179,0.75272685,2.5404358,-3.5934148,2.8151724
852,2026-05-11 16:15:00.929628,0.45100194,-0.13525179,0.75272685,2.5404358,-3.5934148,2.8151724
853,2026-05-11 16:15:00.932763,0.45100194,-0.13525179,0.75272685,2.5404358,-3.5934148,2.8151724
854,2026-05-11 16:15:00.935690,0.45100194,-0.13525179,0.75272685,2.5404358,-3.5934148,2.8151724
855,2026-05-11 16:15:00.938480,0.4136217,-0.25068536,0.48887,2.5404358,-3.5934148,2.8151724
856,2026-05-11 16:15:00.941076,0.4136217,-0.25068536,0.48887,2.5404358,-3.5934148,2.8151724
857,2026-05-11 16:15:00.943761,0.4136217,-0.25068536,0.48887,2.5404358,-3.5934148,2.8151724
858,2026-05-11 16:15:00.946359,0.4136217,-0.25068536,0.48887,2.5404358,-3.5934148,2.8151724
859,2026-05-11 16:15:00.949141,0.4136217,-0.25068536,0.48887,2.5404358,-3.5934148,2.8151724
860,2026-05-11 16:15:00.952239,0.4136217,-0.25068536,0.48887,3.2850807,-3.9532144,3.2276592
861,2026-05-11 16:15:00.955048,0.48325992,-0.386364,0.16549747,3.642895,-4.0903535,4.0695844
862,2026-05-11 16:15:00.957743,0.48325992,-0.386364,0.16549747,3.642895,-4.0903535,4.0695844
863,2026-05-11 16:15:00.960328,0.48325992,-0.386364,0.16549747,3.642895,-4.0903535,4.0695844
864,2026-05-11 16:15:00.963079,0.48325992,-0.386364,0.16549747,3.642895,-4.0903535,4.0695844
865,2026-05-11 16:15:00.966292,0.48325992,-0.386364,0.16549747,3.642895,-4.0903535,4.0695844
866,2026-05-11 16:15:00.969257,0.5302139,-0.39959648,0.12183637,3.695582,-4.195575,4.3247733
867,2026-05-11 16:15:00.972090,0.5302139,-0.39959648,0.12183637,3.695582,-4.195575,4.3247733
868,2026-05-11 16:15:00.974804,0.5302139,-0.39959648,0.12183637,3.695582,-4.195575,4.3247733
869,2026-05-11 16:15:00.977530,0.5302139,-0.39959648,0.12183637,3.695582,-4.195575,4.3247733
870,2026-05-11 16:15:00.980290,0.5302139,-0.39959648,0.12183637,3.695582,-4.195575,4.3247733
871,2026-05-11 16:15:00.983541,0.5302139,-0.39959648,0.12183637,3.695582,-4.195575,4.3247733
872,2026-05-11 16:15:00.986348,0.5302139,-0.39959648,0.12183637,3.695582,-4.195575,4.3247733
873,2026-05-11 16:15:00.988948,0.5302139,-0.39959648,0.12183637,3.695582,-4.195575,4.3247733
874,2026-05-11 16:15:00.991653,0.5302139,-0.39959648,0.12183637,3.8147008,-4.565607,4.717865
875,2026-05-11 16:15:00.994407,0.5302139,-0.39959648,0.12183637,3.8147008,-4.565607,4.717865
876,2026-05-11 16:15:00.997043,0.5302139,-0.39959648,0.12183637,3.8147008,-4.565607,4.717865
877,2026-05-11 16:15:01.000055,0.5302139,-0.39959648,0.12183637,3.8147008,-4.565607,4.717865
878,2026-05-11 16:15:01.002861,0.7754111,-0.4344156,0.005366167,3.8147008,-4.565607,4.717865
879,2026-05-11 16:15:01.005436,0.7754111,-0.4344156,0.005366167,3.8147008,-4.565607,4.717865
880,2026-05-11 16:15:01.008127,0.7754111,-0.4344156,0.005366167,3.8147008,-4.565607,4.717865
881,2026-05-11 16:15:01.010791,0.7754111,-0.4344156,0.005366167,3.8147008,-4.565607,4.717865
882,2026-05-11 16:15:01.013449,0.7754111,-0.4344156,0.005366167,3.8147008,-4.565607,4.717865
883,2026-05-11 16:15:01.016757,0.7754111,-0.4344156,0.005366167,3.8147008,-4.565607,4.717865
884,2026-05-11 16:15:01.019538,0.7754111,-0.4344156,0.005366167,3.8147008,-4.565607,4.717865
885,2026-05-11 16:15:01.022128,0.7754111,-0.4344156,0.005366167,3.8147008,-4.565607,4.717865
886,2026-05-11 16:15:01.024925,0.7754111,-0.4344156,0.005366167,3.8147008,-4.565607,4.717865
887,2026-05-11 16:15:01.027667,0.7754111,-0.4344156,0.005366167,3.8147008,-4.565607,4.717865
888,2026-05-11 16:15:01.030244,0.7754111,-0.4344156,0.005366167,3.8147008,-4.565607,4.717865
889,2026-05-11 16:15:01.033242,0.7754111,-0.4344156,0.005366167,3.8147008,-4.565607,4.717865
890,2026-05-11 16:15:01.036026,0.7754111,-0.4344156,0.005366167,3.8147008,-4.565607,4.717865
891,2026-05-11 16:15:01.038600,0.7754111,-0.4344156,0.005366167,3.8147008,-4.565607,4.717865
892,2026-05-11 16:15:01.041169,0.7754111,-0.4344156,0.005366167,3.8147008,-4.565607,4.717865
893,2026-05-11 16:15:01.043990,0.7754111,-0.4344156,0.005366167,3.8147008,-4.565607,4.717865
894,2026-05-11 16:15:01.046685,0.7754111,-0.4344156,0.005366167,3.8147008,-4.565607,4.717865
895,2026-05-11 16:15:01.049647,0.7754111,-0.4344156,0.005366167,3.8147008,-4.565607,4.717865
896,2026-05-11 16:15:01.052310,0.7754111,-0.4344156,0.005366167,3.8147008,-4.565607,4.717865
897,2026-05-11 16:15:01.055112,0.7754111,-0.4344156,0.005366167,3.8147008,-4.565607,4.717865
898,2026-05-11 16:15:01.057831,0.7754111,-0.4344156,0.005366167,3.8147008,-4.565607,4.717865
899,2026-05-11 16:15:01.060532,0.7754111,-0.4344156,0.005366167,3.8147008,-4.565607,4.717865
900,2026-05-11 16:15:01.063108,0.7754111,-0.4344156,0.005366167,3.8147008,-4.565607,4.717865
901,2026-05-11 16:15:01.066330,0.7754111,-0.4344156,0.005366167,3.8147008,-4.565607,4.717865
902,2026-05-11 16:15:01.069292,0.7754111,-0.4344156,0.005366167,3.8147008,-4.565607,4.717865
903,2026-05-11 16:15:01.072077,0.7754111,-0.4344156,0.005366167,3.8147008,-4.565607,4.717865
904,2026-05-11 16:15:01.074881,1.1568358,-0.42703712,-0.12061679,3.8492146,-4.6964846,4.820338
905,2026-05-11 16:15:01.077544,1.1568358,-0.42703712,-0.12061679,3.8492146,-4.6964846,4.820338
906,2026-05-11 16:15:01.080121,1.1568358,-0.42703712,-0.12061679,3.8492146,-4.6964846,4.820338
907,2026-05-11 16:15:01.083221,1.1568358,-0.42703712,-0.12061679,3.8492146,-4.6964846,4.820338
908,2026-05-11 16:15:01.085981,1.1568358,-0.42703712,-0.12061679,3.7771325,-4.638147,4.825835
909,2026-05-11 16:15:01.088569,1.1568358,-0.42703712,-0.12061679,3.7771325,-4.638147,4.825835
910,2026-05-11 16:15:01.091283,1.1568358,-0.42703712,-0.12061679,3.7771325,-4.638147,4.825835
911,2026-05-11 16:15:01.094186,1.1568358,-0.42703712,-0.12061679,3.7771325,-4.638147,4.825835
912,2026-05-11 16:15:01.096935,1.3280044,-0.3983159,-0.30489585,3.2774448,-4.13907,4.7061057
913,2026-05-11 16:15:01.100271,1.3400172,-0.41758534,-0.43679374,2.4449883,-3.414584,4.618447
914,2026-05-11 16:15:01.103115,1.3400172,-0.41758534,-0.43679374,2.4449883,-3.414584,4.618447
915,2026-05-11 16:15:01.105799,1.3400172,-0.41758534,-0.43679374,2.4449883,-3.414584,4.618447
916,2026-05-11 16:15:01.108410,1.3400172,-0.41758534,-0.43679374,2.4449883,-3.414584,4.618447
917,2026-05-11 16:15:01.111225,1.3400172,-0.41758534,-0.43679374,1.6453656,-2.859613,4.691598
918,2026-05-11 16:15:01.113963,1.3400172,-0.41758534,-0.43679374,1.6453656,-2.859613,4.691598
919,2026-05-11 16:15:01.117047,1.3400172,-0.41758534,-0.43679374,1.6453656,-2.859613,4.691598
920,2026-05-11 16:15:01.119858,1.3400172,-0.41758534,-0.43679374,1.6453656,-2.859613,4.691598
921,2026-05-11 16:15:01.122675,1.373251,-0.40752378,-0.24873403,1.6453656,-2.859613,4.691598
922,2026-05-11 16:15:01.125299,1.373251,-0.40752378,-0.24873403,1.6453656,-2.859613,4.691598
923,2026-05-11 16:15:01.128126,1.373251,-0.40752378,-0.24873403,1.6453656,-2.859613,4.691598
924,2026-05-11 16:15:01.130872,1.373251,-0.40752378,-0.24873403,1.6453656,-2.859613,4.691598
925,2026-05-11 16:15:01.133964,1.373251,-0.40752378,-0.24873403,1.6453656,-2.859613,4.691598
926,2026-05-11 16:15:01.136686,1.373251,-0.40752378,-0.24873403,1.6453656,-2.859613,4.691598
927,2026-05-11 16:15:01.139313,1.373251,-0.40752378,-0.24873403,1.6453656,-2.859613,4.691598
928,2026-05-11 16:15:01.141903,1.373251,-0.40752378,-0.24873403,1.6453656,-2.859613,4.691598
929,2026-05-11 16:15:01.144684,1.373251,-0.40752378,-0.24873403,1.6453656,-2.859613,4.691598
930,2026-05-11 16:15:01.147291,1.373251,-0.40752378,-0.24873403,1.6453656,-2.859613,4.691598
931,2026-05-11 16:15:01.150205,1.373251,-0.40752378,-0.24873403,1.6453656,-2.859613,4.691598
932,2026-05-11 16:15:01.152904,1.373251,-0.40752378,-0.24873403,1.6453656,-2.859613,4.691598
933,2026-05-11 16:15:01.155461,1.373251,-0.40752378,-0.24873403,1.6453656,-2.859613,4.691598
934,2026-05-11 16:15:01.158058,1.373251,-0.40752378,-0.24873403,1.6453656,-2.859613,4.691598
935,2026-05-11 16:15:01.160722,1.373251,-0.40752378,-0.24873403,1.6453656,-2.859613,4.691598
936,2026-05-11 16:15:01.163278,1.373251,-0.40752378,-0.24873403,1.6453656,-2.859613,4.691598
937,2026-05-11 16:15:01.166275,1.373251,-0.40752378,-0.24873403,1.6453656,-2.859613,4.691598
938,2026-05-11 16:15:01.169141,1.373251,-0.40752378,-0.24873403,1.6453656,-2.859613,4.691598
939,2026-05-11 16:15:01.171770,1.373251,-0.40752378,-0.24873403,1.6453656,-2.859613,4.691598
940,2026-05-11 16:15:01.174351,1.373251,-0.40752378,-0.24873403,1.6453656,-2.859613,4.691598
941,2026-05-11 16:15:01.176953,1.373251,-0.40752378,-0.24873403,1.6453656,-2.859613,4.691598
942,2026-05-11 16:15:01.179532,1.373251,-0.40752378,-0.24873403,1.6453656,-2.859613,4.691598
943,2026-05-11 16:15:01.182590,1.373251,-0.40752378,-0.24873403,1.6453656,-2.859613,4.691598
944,2026-05-11 16:15:01.185440,1.373251,-0.40752378,-0.24873403,0.79320854,-2.4237607,4.889365
945,2026-05-11 16:15:01.188318,1.373251,-0.40752378,-0.24873403,0.79320854,-2.4237607,4.889365
946,2026-05-11 16:15:01.190970,1.373251,-0.40752378,-0.24873403,0.79320854,-2.4237607,4.889365
947,2026-05-11 16:15:01.193805,1.373251,-0.40752378,-0.24873403,0.79320854,-2.4237607,4.889365
948,2026-05-11 16:15:01.196397,1.373251,-0.40752378,-0.24873403,0.79320854,-2.4237607,4.889365
949,2026-05-11 16:15:01.199600,1.373251,-0.40752378,-0.24873403,0.35735616,-2.292119,5.0552154
950,2026-05-11 16:15:01.202533,1.373251,-0.40752378,-0.24873403,0.35735616,-2.292119,5.0552154
951,2026-05-11 16:15:01.205219,1.373251,-0.40752378,-0.24873403,0.35735616,-2.292119,5.0552154
952,2026-05-11 16:15:01.207871,1.373251,-0.40752378,-0.24873403,0.35735616,-2.292119,5.0552154
953,2026-05-11 16:15:01.210502,1.373251,-0.40752378,-0.24873403,0.35735616,-2.292119,5.0552154
954,2026-05-11 16:15:01.213076,1.373251,-0.40752378,-0.24873403,0.35735616,-2.292119,5.0552154
955,2026-05-11 16:15:01.216288,1.373251,-0.40752378,-0.24873403,0.35735616,-2.292119,5.0552154
956,2026-05-11 16:15:01.219153,1.373251,-0.40752378,-0.24873403,0.35735616,-2.292119,5.0552154
957,2026-05-11 16:15:01.221730,1.373251,-0.40752378,-0.24873403,0.35735616,-2.292119,5.0552154
958,2026-05-11 16:15:01.224484,1.373251,-0.40752378,-0.24873403,0.35735616,-2.292119,5.0552154
959,2026-05-11 16:15:01.227100,1.373251,-0.40752378,-0.24873403,0.35735616,-2.292119,5.0552154
960,2026-05-11 16:15:01.229905,1.373251,-0.40752378,-0.24873403,0.35735616,-2.292119,5.0552154
961,2026-05-11 16:15:01.232812,1.373251,-0.40752378,-0.24873403,0.35735616,-2.292119,5.0552154
962,2026-05-11 16:15:01.235720,1.4905138,-0.4045358,-0.08226089,0.35735616,-2.292119,5.0552154
963,2026-05-11 16:15:01.238296,1.4905138,-0.4045358,-0.08226089,0.35735616,-2.292119,5.0552154
964,2026-05-11 16:15:01.240872,1.4905138,-0.4045358,-0.08226089,0.35735616,-2.292119,5.0552154
965,2026-05-11 16:15:01.243619,1.4905138,-0.4045358,-0.08226089,0.35735616,-2.292119,5.0552154
966,2026-05-11 16:15:01.246207,1.4905138,-0.4045358,-0.08226089,0.35735616,-2.292119,5.0552154
967,2026-05-11 16:15:01.248871,1.4905138,-0.4045358,-0.08226089,0.35735616,-2.292119,5.0552154
968,2026-05-11 16:15:01.252115,1.4905138,-0.4045358,-0.08226089,0.35735616,-2.292119,5.0552154
969,2026-05-11 16:15:01.254826,1.4905138,-0.4045358,-0.08226089,0.35735616,-2.292119,5.0552154
970,2026-05-11 16:15:01.257658,1.4905138,-0.4045358,-0.08226089,0.35735616,-2.292119,5.0552154
971,2026-05-11 16:15:01.260323,1.4905138,-0.4045358,-0.08226089,0.35735616,-2.292119,5.0552154
972,2026-05-11 16:15:01.263012,1.4905138,-0.4045358,-0.08226089,0.35735616,-2.292119,5.0552154
973,2026-05-11 16:15:01.266196,1.4905138,-0.4045358,-0.08226089,0.35735616,-2.292119,5.0552154
974,2026-05-11 16:15:01.269071,1.4905138,-0.4045358,-0.08226089,0.35735616,-2.292119,5.0552154
975,2026-05-11 16:15:01.271766,1.4905138,-0.4045358,-0.08226089,0.35735616,-2.292119,5.0552154
976,2026-05-11 16:15:01.274552,1.4905138,-0.4045358,-0.08226089,0.35735616,-2.292119,5.0552154
977,2026-05-11 16:15:01.277336,1.4905138,-0.4045358,-0.08226089,0.35735616,-2.292119,5.0552154
978,2026-05-11 16:15:01.279920,1.4905138,-0.4045358,-0.08226089,0.35735616,-2.292119,5.0552154
979,2026-05-11 16:15:01.283064,1.4905138,-0.4045358,-0.08226089,0.35735616,-2.292119,5.0552154
980,2026-05-11 16:15:01.285865,1.4905138,-0.4045358,-0.08226089,0.35735616,-2.292119,5.0552154
981,2026-05-11 16:15:01.288567,1.4905138,-0.4045358,-0.08226089,0.35735616,-2.292119,5.0552154
982,2026-05-11 16:15:01.291273,1.4905138,-0.4045358,-0.08226089,0.35735616,-2.292119,5.0552154
983,2026-05-11 16:15:01.293973,1.6994286,-0.3579477,0.08909056,0.030390546,-2.2489004,5.1100407
984,2026-05-11 16:15:01.296759,1.8055321,-0.26056397,0.18860857,0.030390546,-2.2489004,5.1100407
985,2026-05-11 16:15:01.299909,1.8055321,-0.26056397,0.18860857,0.030390546,-2.2489004,5.1100407
986,2026-05-11 16:15:01.302676,1.8055321,-0.26056397,0.18860857,0.030390546,-2.2489004,5.1100407
987,2026-05-11 16:15:01.305403,1.8055321,-0.26056397,0.18860857,-0.05375614,-2.326633,5.0546045
988,2026-05-11 16:15:01.308055,1.8055321,-0.26056397,0.18860857,-0.05375614,-2.326633,5.0546045
989,2026-05-11 16:15:01.310723,2.0251791,-0.13897152,0.3295924,-0.05375614,-2.326633,5.0546045
990,2026-05-11 16:15:01.313326,2.0251791,-0.13897152,0.3295924,-0.05375614,-2.326633,5.0546045
991,2026-05-11 16:15:01.316310,2.0251791,-0.13897152,0.3295924,-0.05375614,-2.326633,5.0546045
992,2026-05-11 16:15:01.319262,2.0251791,-0.13897152,0.3295924,-0.05375614,-2.326633,5.0546045
993,2026-05-11 16:15:01.321841,2.0251791,-0.13897152,0.3295924,-0.05375614,-2.326633,5.0546045
994,2026-05-11 16:15:01.324683,2.0251791,-0.13897152,0.3295924,-0.05375614,-2.326633,5.0546045
995,2026-05-11 16:15:01.327477,2.0036535,-0.23867247,0.38618106,-0.01282817,-2.2319489,4.5594983
996,2026-05-11 16:15:01.330130,2.0036535,-0.23867247,0.38618106,-0.01282817,-2.2319489,4.5594983
997,2026-05-11 16:15:01.333237,2.0036535,-0.23867247,0.38618106,-0.01282817,-2.2319489,4.5594983
998,2026-05-11 16:15:01.336092,2.0036535,-0.23867247,0.38618106,-0.01282817,-2.2319489,4.5594983
999,2026-05-11 16:15:01.338718,2.0036535,-0.23867247,0.38618106,-0.01282817,-2.2319489,4.5594983
1000,2026-05-11 16:15:01.341504,2.0036535,-0.23867247,0.38618106,-0.01282817,-2.2319489,4.5594983
1001,2026-05-11 16:15:01.344408,2.0734136,-0.044453815,0.36166742,-0.09040806,-1.821142,4.4452662
1002,2026-05-11 16:15:01.347128,2.0734136,-0.044453815,0.36166742,-0.09040806,-1.821142,4.4452662
1003,2026-05-11 16:15:01.350442,2.244826,0.07927292,0.47466183,-0.14370605,-1.5604553,4.120744
1004,2026-05-11 16:15:01.353254,2.244826,0.07927292,0.47466183,-0.14370605,-1.5604553,4.120744
1005,2026-05-11 16:15:01.355922,2.1525645,-0.00085370836,0.52082306,-0.0759,-1.4842498,3.9564214
1006,2026-05-11 16:15:01.358761,2.1525645,-0.00085370836,0.52082306,-0.0759,-1.4842498,3.9564214
1007,2026-05-11 16:15:01.361390,2.1525645,-0.00085370836,0.52082306,-0.0759,-1.4842498,3.9564214
1008,2026-05-11 16:15:01.364087,2.1525645,-0.00085370836,0.52082306,-0.0759,-1.4842498,3.9564214
1009,2026-05-11 16:15:01.367262,2.1525645,-0.00085370836,0.52082306,0.1777618,-1.4294246,3.6939023
1010,2026-05-11 16:15:01.370074,2.1525645,-0.00085370836,0.52082306,0.1777618,-1.4294246,3.6939023
1011,2026-05-11 16:15:01.372726,2.1525645,-0.00085370836,0.52082306,0.1777618,-1.4294246,3.6939023
1012,2026-05-11 16:15:01.375243,2.1525645,-0.00085370836,0.52082306,0.1777618,-1.4294246,3.6939023
1013,2026-05-11 16:15:01.377820,2.1525645,-0.00085370836,0.52082306,0.1777618,-1.4294246,3.6939023
1014,2026-05-11 16:15:01.380412,2.1525645,-0.00085370836,0.52082306,0.1777618,-1.4294246,3.6939023
1015,2026-05-11 16:15:01.383309,2.1525645,-0.00085370836,0.52082306,0.1777618,-1.4294246,3.6939023
1016,2026-05-11 16:15:01.386028,2.1525645,-0.00085370836,0.52082306,0.1777618,-1.4294246,3.6939023
1017,2026-05-11 16:15:01.388645,2.1003664,0.07762648,0.47697908,0.1777618,-1.4294246,3.6939023
1018,2026-05-11 16:15:01.391361,2.1003664,0.07762648,0.47697908,0.1777618,-1.4294246,3.6939023
1019,2026-05-11 16:15:01.394002,2.1003664,0.07762648,0.47697908,0.1777618,-1.4294246,3.6939023
1020,2026-05-11 16:15:01.396503,2.1003664,0.07762648,0.47697908,0.1777618,-1.4294246,3.6939023
1021,2026-05-11 16:15:01.399529,2.1003664,0.07762648,0.47697908,0.1777618,-1.4294246,3.6939023
1022,2026-05-11 16:15:01.402321,2.0617058,0.17488825,0.5228354,0.32528573,-1.5129606,3.4289393
1023,2026-05-11 16:15:01.404853,2.0617058,0.17488825,0.5228354,0.32528573,-1.5129606,3.4289393
1024,2026-05-11 16:15:01.407385,2.0617058,0.17488825,0.5228354,0.32528573,-1.5129606,3.4289393
1025,2026-05-11 16:15:01.409930,2.0617058,0.17488825,0.5228354,0.32528573,-1.5129606,3.4289393
1026,2026-05-11 16:15:01.412605,2.0617058,0.17488825,0.5228354,0.32528573,-1.5129606,3.4289393
1027,2026-05-11 16:15:01.415687,2.0617058,0.17488825,0.5228354,0.32528573,-1.5129606,3.4289393
1028,2026-05-11 16:15:01.418451,2.057315,0.05744238,0.5429585,0.46883908,-1.5146403,3.1355712
1029,2026-05-11 16:15:01.421098,2.057315,0.05744238,0.5429585,0.46883908,-1.5146403,3.1355712
1030,2026-05-11 16:15:01.423661,2.057315,0.05744238,0.5429585,0.46883908,-1.5146403,3.1355712
1031,2026-05-11 16:15:01.426298,2.057315,0.05744238,0.5429585,0.46883908,-1.5146403,3.1355712
1032,2026-05-11 16:15:01.428797,2.057315,0.05744238,0.5429585,0.46883908,-1.5146403,3.1355712
1033,2026-05-11 16:15:01.431469,2.057315,0.05744238,0.5429585,0.46883908,-1.5146403,3.1355712
1034,2026-05-11 16:15:01.434546,2.057315,0.05744238,0.5429585,0.46883908,-1.5146403,3.1355712
1035,2026-05-11 16:15:01.437276,2.057315,0.05744238,0.5429585,0.46883908,-1.5146403,3.1355712
1036,2026-05-11 16:15:01.439874,2.057315,0.05744238,0.5429585,0.46883908,-1.5146403,3.1355712
1037,2026-05-11 16:15:01.442519,2.057315,0.05744238,0.5429585,0.46883908,-1.5146403,3.1355712
1038,2026-05-11 16:15:01.445273,2.1615896,0.18714507,0.5822291,0.5119051,-1.326952,2.7391198
1039,2026-05-11 16:15:01.447855,2.1615896,0.18714507,0.5822291,0.5119051,-1.326952,2.7391198
1040,2026-05-11 16:15:01.450987,2.1615896,0.18714507,0.5822291,0.5119051,-1.326952,2.7391198
1041,2026-05-11 16:15:01.453671,2.1615896,0.18714507,0.5822291,0.5119051,-1.326952,2.7391198
1042,2026-05-11 16:15:01.456266,2.1615896,0.18714507,0.5822291,0.5119051,-1.326952,2.7391198
1043,2026-05-11 16:15:01.458869,2.1615896,0.18714507,0.5822291,0.5119051,-1.326952,2.7391198
1044,2026-05-11 16:15:01.461433,2.1615896,0.18714507,0.5822291,0.5119051,-1.326952,2.7391198
1045,2026-05-11 16:15:01.464204,2.1615896,0.18714507,0.5822291,0.5119051,-1.326952,2.7391198
1046,2026-05-11 16:15:01.467249,2.1615896,0.18714507,0.5822291,0.5119051,-1.326952,2.7391198
1047,2026-05-11 16:15:01.470187,2.1615896,0.18714507,0.5822291,0.5119051,-1.326952,2.7391198
1048,2026-05-11 16:15:01.472872,2.1615896,0.18714507,0.5822291,0.5119051,-1.326952,2.7391198
1049,2026-05-11 16:15:01.475489,2.1434786,0.2403189,0.59149796,0.5119051,-1.326952,2.7391198
1050,2026-05-11 16:15:01.478339,2.1434786,0.2403189,0.59149796,0.5119051,-1.326952,2.7391198
1051,2026-05-11 16:15:01.480939,2.1434786,0.2403189,0.59149796,0.5119051,-1.326952,2.7391198
1052,2026-05-11 16:15:01.484124,2.1434786,0.2403189,0.59149796,0.5119051,-1.326952,2.7391198
1053,2026-05-11 16:15:01.486859,2.1434786,0.2403189,0.59149796,0.5119051,-1.326952,2.7391198
1054,2026-05-11 16:15:01.489465,2.1434786,0.2403189,0.59149796,0.5119051,-1.326952,2.7391198
1055,2026-05-11 16:15:01.492295,2.1434786,0.2403189,0.59149796,0.5119051,-1.326952,2.7391198
1056,2026-05-11 16:15:01.494900,2.1434786,0.2403189,0.59149796,0.5119051,-1.326952,2.7391198
1057,2026-05-11 16:15:01.497524,2.1434786,0.2403189,0.59149796,0.5119051,-1.326952,2.7391198
1058,2026-05-11 16:15:01.500515,2.1434786,0.2403189,0.59149796,0.5119051,-1.326952,2.7391198
1059,2026-05-11 16:15:01.503329,2.1434786,0.2403189,0.59149796,0.5119051,-1.326952,2.7391198
1060,2026-05-11 16:15:01.506010,2.1434786,0.2403189,0.59149796,0.5235115,-1.1276573,2.474768
1061,2026-05-11 16:15:01.508844,2.0845118,0.31971377,0.5515566,0.5001459,-0.6093381,1.9475911
1062,2026-05-11 16:15:01.511576,2.0845118,0.31971377,0.5515566,0.5001459,-0.6093381,1.9475911
1063,2026-05-11 16:15:01.514227,2.0845118,0.31971377,0.5515566,0.5001459,-0.6093381,1.9475911
1064,2026-05-11 16:15:01.517293,2.022557,0.4167926,0.5038709,0.4700608,-0.27779096,1.6577356
1065,2026-05-11 16:15:01.520144,2.1200018,0.5938761,0.5438122,0.46379945,-0.107359566,1.4408784
1066,2026-05-11 16:15:01.522890,2.1200018,0.5938761,0.5438122,0.5448918,0.021227567,1.0548116
1067,2026-05-11 16:15:01.525655,2.2023847,0.6324759,0.5514346,0.5448918,0.021227567,1.0548116
1068,2026-05-11 16:15:01.528395,2.2023847,0.6324759,0.5514346,0.5448918,0.021227567,1.0548116
1069,2026-05-11 16:15:01.530983,2.2023847,0.6324759,0.5514346,0.5448918,0.021227567,1.0548116
1070,2026-05-11 16:15:01.533937,2.2023847,0.6324759,0.5514346,0.5448918,0.021227567,1.0548116
1071,2026-05-11 16:15:01.536582,2.2023847,0.6324759,0.5514346,0.5448918,0.021227567,1.0548116
1072,2026-05-11 16:15:01.539132,2.2023847,0.6324759,0.5514346,0.5448918,0.021227567,1.0548116
1073,2026-05-11 16:15:01.541918,2.2023847,0.6324759,0.5514346,0.5448918,0.021227567,1.0548116
1074,2026-05-11 16:15:01.544666,2.2023847,0.6324759,0.5514346,0.6383542,0.07498371,0.7302894
1075,2026-05-11 16:15:01.547364,2.2023847,0.6324759,0.5514346,0.6383542,0.07498371,0.7302894
1076,2026-05-11 16:15:01.550389,2.2023847,0.6324759,0.5514346,0.6383542,0.07498371,0.7302894
1077,2026-05-11 16:15:01.553111,2.2023847,0.6324759,0.5514346,0.6383542,0.07498371,0.7302894
1078,2026-05-11 16:15:01.555664,2.2023847,0.6324759,0.5514346,0.6383542,0.07498371,0.7302894
1079,2026-05-11 16:15:01.558214,2.2023847,0.6324759,0.5514346,0.6383542,0.07498371,0.7302894
1080,2026-05-11 16:15:01.560994,2.2023847,0.6324759,0.5514346,0.6383542,0.07498371,0.7302894
1081,2026-05-11 16:15:01.563558,2.2023847,0.6324759,0.5514346,0.6383542,0.07498371,0.7302894
1082,2026-05-11 16:15:01.566637,2.2023847,0.6324759,0.5514346,0.6383542,0.07498371,0.7302894
1083,2026-05-11 16:15:01.569427,2.2023847,0.6324759,0.5514346,0.6383542,0.07498371,0.7302894
1084,2026-05-11 16:15:01.572047,2.2023847,0.6324759,0.5514346,0.6383542,0.07498371,0.7302894
1085,2026-05-11 16:15:01.574745,2.2023847,0.6324759,0.5514346,0.6383542,0.07498371,0.7302894
1086,2026-05-11 16:15:01.577501,2.2023847,0.6324759,0.5514346,0.6383542,0.07498371,0.7302894
1087,2026-05-11 16:15:01.580103,2.2023847,0.6324759,0.5514346,0.6383542,0.07498371,0.7302894
1088,2026-05-11 16:15:01.583085,2.2023847,0.6324759,0.5514346,0.6383542,0.07498371,0.7302894
1089,2026-05-11 16:15:01.585812,2.2023847,0.6324759,0.5514346,0.6383542,0.07498371,0.7302894
1090,2026-05-11 16:15:01.588586,2.2023847,0.6324759,0.5514346,0.6383542,0.07498371,0.7302894
1091,2026-05-11 16:15:01.591321,2.2023847,0.6324759,0.5514346,0.6383542,0.07498371,0.7302894
1092,2026-05-11 16:15:01.600447,2.2023847,0.6324759,0.5514346,0.6383542,0.07498371,0.7302894
1093,2026-05-11 16:15:01.617156,2.2023847,0.6324759,0.5514346,0.6383542,0.07498371,0.7302894
1094,2026-05-11 16:15:01.621763,2.2023847,0.6324759,0.5514346,0.6383542,0.07498371,0.7302894
1095,2026-05-11 16:15:01.628102,2.2516556,0.717054,0.54844666,0.9083566,0.10262536,-0.06383542
1096,2026-05-11 16:15:01.633703,2.2516556,0.717054,0.54844666,0.9083566,0.10262536,-0.06383542
1097,2026-05-11 16:15:01.637053,2.2516556,0.717054,0.54844666,0.9083566,0.10262536,-0.06383542
1098,2026-05-11 16:15:01.640008,2.2516556,0.717054,0.54844666,0.9083566,0.10262536,-0.06383542
1099,2026-05-11 16:15:01.642630,2.2516556,0.717054,0.54844666,0.9083566,0.10262536,-0.06383542
1100,2026-05-11 16:15:01.645187,2.2516556,0.717054,0.54844666,0.9083566,0.10262536,-0.06383542
1101,2026-05-11 16:15:01.647919,2.2516556,0.717054,0.54844666,0.9083566,0.10262536,-0.06383542
1102,2026-05-11 16:15:01.650842,2.2516556,0.717054,0.54844666,0.9083566,0.10262536,-0.06383542
1103,2026-05-11 16:15:01.654339,2.2516556,0.717054,0.54844666,0.9083566,0.10262536,-0.06383542
1104,2026-05-11 16:15:01.657065,2.2516556,0.717054,0.54844666,0.9083566,0.10262536,-0.06383542
1105,2026-05-11 16:15:01.659878,2.2516556,0.717054,0.54844666,0.9083566,0.10262536,-0.06383542
1106,2026-05-11 16:15:01.662463,2.2516556,0.717054,0.54844666,0.9083566,0.10262536,-0.06383542
1107,2026-05-11 16:15:01.665256,2.2516556,0.717054,0.54844666,0.9083566,0.10262536,-0.06383542
1108,2026-05-11 16:15:01.668299,2.2516556,0.717054,0.54844666,0.9083566,0.10262536,-0.06383542
1109,2026-05-11 16:15:01.671190,2.2516556,0.717054,0.54844666,1.1754575,0.037110064,-0.8014552
1110,2026-05-11 16:15:01.673880,2.2516556,0.717054,0.54844666,1.1754575,0.037110064,-0.8014552
1111,2026-05-11 16:15:01.676779,2.2516556,0.717054,0.54844666,1.1754575,0.037110064,-0.8014552
1112,2026-05-11 16:15:01.679613,2.2516556,0.717054,0.54844666,1.1754575,0.037110064,-0.8014552
1113,2026-05-11 16:15:01.682758,2.2516556,0.717054,0.54844666,1.1754575,0.037110064,-0.8014552
1114,2026-05-11 16:15:01.685637,2.188847,0.7263228,0.49027252,1.1754575,0.037110064,-0.8014552
1115,2026-05-11 16:15:01.688302,2.188847,0.7263228,0.49027252,1.1754575,0.037110064,-0.8014552
1116,2026-05-11 16:15:01.690877,2.188847,0.7263228,0.49027252,1.1754575,0.037110064,-0.8014552
1117,2026-05-11 16:15:01.693765,2.188847,0.7263228,0.49027252,1.1754575,0.037110064,-0.8014552
1118,2026-05-11 16:15:01.696395,2.188847,0.7263228,0.49027252,1.1754575,0.037110064,-0.8014552
1119,2026-05-11 16:15:01.699383,2.188847,0.7263228,0.49027252,1.1754575,0.037110064,-0.8014552
1120,2026-05-11 16:15:01.702107,2.188847,0.7263228,0.49027252,1.1754575,0.037110064,-0.8014552
1121,2026-05-11 16:15:01.704711,2.188847,0.7263228,0.49027252,1.1754575,0.037110064,-0.8014552
1122,2026-05-11 16:15:01.707299,2.188847,0.7263228,0.49027252,1.1754575,0.037110064,-0.8014552
1123,2026-05-11 16:15:01.709956,2.188847,0.7263228,0.49027252,1.1754575,0.037110064,-0.8014552
1124,2026-05-11 16:15:01.712511,2.188847,0.7263228,0.49027252,1.1754575,0.037110064,-0.8014552
1125,2026-05-11 16:15:01.715355,2.188847,0.7263228,0.49027252,1.1754575,0.037110064,-0.8014552
1126,2026-05-11 16:15:01.718379,2.188847,0.7263228,0.49027252,1.1754575,0.037110064,-0.8014552
1127,2026-05-11 16:15:01.721040,2.188847,0.7263228,0.49027252,1.1754575,0.037110064,-0.8014552
1128,2026-05-11 16:15:01.723711,2.188847,0.7263228,0.49027252,1.1754575,0.037110064,-0.8014552
1129,2026-05-11 16:15:01.726333,2.188847,0.7263228,0.49027252,1.1754575,0.037110064,-0.8014552
1130,2026-05-11 16:15:01.729243,2.0836582,0.65461135,0.41325584,1.3437508,-0.0143553335,-1.3249667
1131,2026-05-11 16:15:01.732234,1.8376073,0.46484417,0.3031884,1.481501,-0.022143865,-1.9872974
1132,2026-05-11 16:15:01.735710,1.8376073,0.46484417,0.3031884,1.481501,-0.022143865,-1.9872974
1133,2026-05-11 16:15:01.738519,1.8376073,0.46484417,0.3031884,1.481501,-0.022143865,-1.9872974
1134,2026-05-11 16:15:01.741171,1.8376073,0.46484417,0.3031884,1.481501,-0.022143865,-1.9872974
1135,2026-05-11 16:15:01.743764,1.8376073,0.46484417,0.3031884,1.481501,-0.022143865,-1.9872974
1136,2026-05-11 16:15:01.746507,1.8376073,0.46484417,0.3031884,1.481501,-0.022143865,-1.9872974
1137,2026-05-11 16:15:01.749675,1.8376073,0.46484417,0.3031884,1.481501,-0.022143865,-1.9872974
1138,2026-05-11 16:15:01.752518,1.8376073,0.46484417,0.3031884,1.481501,-0.022143865,-1.9872974
1139,2026-05-11 16:15:01.755263,1.8376073,0.46484417,0.3031884,1.5219707,-0.11591168,-2.1568124
1140,2026-05-11 16:15:01.758085,1.8376073,0.46484417,0.3031884,1.5219707,-0.11591168,-2.1568124
1141,2026-05-11 16:15:01.760954,2.0415215,0.28196767,0.34928867,1.6420058,-0.34376442,-2.326633
1142,2026-05-11 16:15:01.763636,2.0415215,0.28196767,0.34928867,1.6420058,-0.34376442,-2.326633
1143,2026-05-11 16:15:01.766987,2.0415215,0.28196767,0.34928867,1.6420058,-0.34376442,-2.326633
1144,2026-05-11 16:15:01.769782,2.0415215,0.28196767,0.34928867,1.6420058,-0.34376442,-2.326633
1145,2026-05-11 16:15:01.772387,2.0415215,0.28196767,0.34928867,1.6420058,-0.34376442,-2.326633
1146,2026-05-11 16:15:01.775137,2.0415215,0.28196767,0.34928867,1.6420058,-0.34376442,-2.326633
1147,2026-05-11 16:15:01.777719,2.0415215,0.28196767,0.34928867,1.6420058,-0.34376442,-2.326633
1148,2026-05-11 16:15:01.780597,2.0415215,0.28196767,0.34928867,1.8005253,-0.551764,-2.5622742
1149,2026-05-11 16:15:01.783866,2.3885539,0.13866661,0.354167,1.8005253,-0.551764,-2.5622742
1150,2026-05-11 16:15:01.786653,2.3885539,0.13866661,0.354167,1.8005253,-0.551764,-2.5622742
1151,2026-05-11 16:15:01.789233,2.3885539,0.13866661,0.354167,1.8005253,-0.551764,-2.5622742
1152,2026-05-11 16:15:01.792097,2.3885539,0.13866661,0.354167,1.8005253,-0.551764,-2.5622742
1153,2026-05-11 16:15:01.794776,2.3885539,0.13866661,0.354167,1.8005253,-0.551764,-2.5622742
1154,2026-05-11 16:15:01.797460,2.3885539,0.13866661,0.354167,2.0015,-0.7696902,-2.96178
1155,2026-05-11 16:15:01.800602,2.3885539,0.13866661,0.354167,2.0015,-0.7696902,-2.96178
1156,2026-05-11 16:15:01.803367,2.3885539,0.13866661,0.354167,2.0015,-0.7696902,-2.96178
1157,2026-05-11 16:15:01.806061,2.3885539,0.13866661,0.354167,2.0015,-0.7696902,-2.96178
1158,2026-05-11 16:15:01.808802,2.3885539,0.13866661,0.354167,2.0015,-0.7696902,-2.96178
1159,2026-05-11 16:15:01.811414,2.3885539,0.13866661,0.354167,2.0015,-0.7696902,-2.96178
1160,2026-05-11 16:15:01.814076,2.3885539,0.13866661,0.354167,2.0015,-0.7696902,-2.96178
1161,2026-05-11 16:15:01.817335,2.3885539,0.13866661,0.354167,2.0015,-0.7696902,-2.96178
1162,2026-05-11 16:15:01.820127,2.3885539,0.13866661,0.354167,2.0015,-0.7696902,-2.96178
1163,2026-05-11 16:15:01.822800,2.3885539,0.13866661,0.354167,2.0015,-0.7696902,-2.96178
1164,2026-05-11 16:15:01.825464,2.3885539,0.13866661,0.354167,2.0015,-0.7696902,-2.96178
1165,2026-05-11 16:15:01.828077,2.4134946,0.10262794,0.34197116,2.0015,-0.7696902,-2.96178
1166,2026-05-11 16:15:01.830856,2.4134946,0.10262794,0.34197116,2.0015,-0.7696902,-2.96178
1167,2026-05-11 16:15:01.833988,2.4134946,0.10262794,0.34197116,2.0015,-0.7696902,-2.96178
1168,2026-05-11 16:15:01.836820,2.4134946,0.10262794,0.34197116,2.0015,-0.7696902,-2.96178
1169,2026-05-11 16:15:01.839448,2.4134946,0.10262794,0.34197116,2.0015,-0.7696902,-2.96178
1170,2026-05-11 16:15:01.842364,2.4134946,0.10262794,0.34197116,2.0015,-0.7696902,-2.96178
1171,2026-05-11 16:15:01.845105,2.4134946,0.10262794,0.34197116,2.0015,-0.7696902,-2.96178
1172,2026-05-11 16:15:01.847851,2.4134946,0.10262794,0.34197116,2.0796907,-0.86452705,-3.2010865
1173,2026-05-11 16:15:01.850749,2.4134946,0.10262794,0.34197116,2.0796907,-0.86452705,-3.2010865
1174,2026-05-11 16:15:01.853548,2.4134946,0.10262794,0.34197116,2.0796907,-0.86452705,-3.2010865
1175,2026-05-11 16:15:01.856243,2.4134946,0.10262794,0.34197116,2.0796907,-0.86452705,-3.2010865
1176,2026-05-11 16:15:01.858985,2.4134946,0.10262794,0.34197116,2.0796907,-0.86452705,-3.2010865
1177,2026-05-11 16:15:01.861753,2.4134946,0.10262794,0.34197116,2.0900755,-0.8323039,-3.712381
1178,2026-05-11 16:15:01.864420,2.4134946,0.10262794,0.34197116,2.0900755,-0.8323039,-3.712381
1179,2026-05-11 16:15:01.867392,2.4134946,0.10262794,0.34197116,2.0900755,-0.8323039,-3.712381
1180,2026-05-11 16:15:01.870208,2.4134946,0.10262794,0.34197116,2.0900755,-0.8323039,-3.712381
1181,2026-05-11 16:15:01.872816,2.4134946,0.10262794,0.34197116,2.0900755,-0.8323039,-3.712381
1182,2026-05-11 16:15:01.875658,2.4134946,0.10262794,0.34197116,2.0900755,-0.8323039,-3.712381
1183,2026-05-11 16:15:01.878240,2.4134946,0.10262794,0.34197116,2.0900755,-0.8323039,-3.712381
1184,2026-05-11 16:15:01.881035,2.4134946,0.10262794,0.34197116,2.0900755,-0.8323039,-3.712381
1185,2026-05-11 16:15:01.884090,2.4134946,0.10262794,0.34197116,2.0900755,-0.8323039,-3.712381
1186,2026-05-11 16:15:01.886851,2.4134946,0.10262794,0.34197116,2.0900755,-0.8323039,-3.712381
1187,2026-05-11 16:15:01.889437,2.4134946,0.10262794,0.34197116,2.0900755,-0.8323039,-3.712381
1188,2026-05-11 16:15:01.892142,2.4594119,0.0001829375,0.33361703,2.0900755,-0.8323039,-3.712381
1189,2026-05-11 16:15:01.894759,2.4594119,0.0001829375,0.33361703,2.0900755,-0.8323039,-3.712381
1190,2026-05-11 16:15:01.897514,2.4594119,0.0001829375,0.33361703,2.0900755,-0.8323039,-3.712381
1191,2026-05-11 16:15:01.900541,2.4594119,0.0001829375,0.33361703,2.0900755,-0.8323039,-3.712381
1192,2026-05-11 16:15:01.903303,2.4594119,0.0001829375,0.33361703,2.0900755,-0.8323039,-3.712381
1193,2026-05-11 16:15:01.905870,2.4594119,0.0001829375,0.33361703,2.0900755,-0.8323039,-3.712381
1194,2026-05-11 16:15:01.908600,2.4594119,0.0001829375,0.33361703,2.0900755,-0.8323039,-3.712381
1195,2026-05-11 16:15:01.911218,2.4594119,0.0001829375,0.33361703,2.0900755,-0.8323039,-3.712381
1196,2026-05-11 16:15:01.913794,2.4594119,0.0001829375,0.33361703,2.0900755,-0.8323039,-3.712381
1197,2026-05-11 16:15:01.916921,2.450143,-0.10799411,0.35813063,2.044108,-0.5757405,-4.0908117
1198,2026-05-11 16:15:01.919602,2.450143,-0.10799411,0.35813063,2.044108,-0.5757405,-4.0908117
1199,2026-05-11 16:15:01.922253,2.450143,-0.10799411,0.35813063,2.044108,-0.5757405,-4.0908117
1200,2026-05-11 16:15:01.924905,2.450143,-0.10799411,0.35813063,2.044108,-0.5757405,-4.0908117
1201,2026-05-11 16:15:01.927486,2.450143,-0.10799411,0.35813063,2.044108,-0.5757405,-4.0908117
1202,2026-05-11 16:15:01.930337,2.450143,-0.10799411,0.35813063,2.044108,-0.5757405,-4.0908117
1203,2026-05-11 16:15:01.933325,2.450143,-0.10799411,0.35813063,2.044108,-0.5757405,-4.0908117
1204,2026-05-11 16:15:01.936041,2.450143,-0.10799411,0.35813063,2.044108,-0.5757405,-4.0908117
1205,2026-05-11 16:15:01.938592,2.450143,-0.10799411,0.35813063,2.044108,-0.5757405,-4.0908117
1206,2026-05-11 16:15:01.941171,2.450143,-0.10799411,0.35813063,2.044108,-0.5757405,-4.0908117
1207,2026-05-11 16:15:01.943919,2.450143,-0.10799411,0.35813063,2.044108,-0.5757405,-4.0908117
1208,2026-05-11 16:15:01.946509,2.450143,-0.10799411,0.35813063,2.044108,-0.5757405,-4.0908117
1209,2026-05-11 16:15:01.949356,2.450143,-0.10799411,0.35813063,2.044108,-0.5757405,-4.0908117
1210,2026-05-11 16:15:01.952111,2.450143,-0.10799411,0.35813063,2.044108,-0.5757405,-4.0908117
1211,2026-05-11 16:15:01.954798,2.450143,-0.10799411,0.35813063,2.044108,-0.5757405,-4.0908117
1212,2026-05-11 16:15:01.957371,2.450143,-0.10799411,0.35813063,2.044108,-0.5757405,-4.0908117
1213,2026-05-11 16:15:01.959957,2.450143,-0.10799411,0.35813063,2.044108,-0.5757405,-4.0908117
1214,2026-05-11 16:15:01.962783,2.450143,-0.10799411,0.35813063,2.044108,-0.5757405,-4.0908117
1215,2026-05-11 16:15:01.965533,2.450143,-0.10799411,0.35813063,2.044108,-0.5757405,-4.0908117
1216,2026-05-11 16:15:01.968775,2.450143,-0.10799411,0.35813063,2.044108,-0.5757405,-4.0908117
1217,2026-05-11 16:15:01.971445,2.450143,-0.10799411,0.35813063,2.044108,-0.5757405,-4.0908117
1218,2026-05-11 16:15:01.974048,2.450143,-0.10799411,0.35813063,2.044108,-0.5757405,-4.0908117
1219,2026-05-11 16:15:01.976860,2.450143,-0.10799411,0.35813063,2.044108,-0.5757405,-4.0908117
1220,2026-05-11 16:15:01.979493,2.450143,-0.10799411,0.35813063,2.044108,-0.5757405,-4.0908117
1221,2026-05-11 16:15:01.982421,2.450143,-0.10799411,0.35813063,2.044108,-0.5757405,-4.0908117
1222,2026-05-11 16:15:01.985447,2.450143,-0.10799411,0.35813063,2.044108,-0.5757405,-4.0908117
1223,2026-05-11 16:15:01.988210,2.450143,-0.10799411,0.35813063,2.044108,-0.5757405,-4.0908117
1224,2026-05-11 16:15:01.990996,2.450143,-0.10799411,0.35813063,2.044108,-0.5757405,-4.0908117
1225,2026-05-11 16:15:01.993642,2.450143,-0.10799411,0.35813063,2.044108,-0.5757405,-4.0908117
1226,2026-05-11 16:15:01.996412,2.450143,-0.10799411,0.35813063,2.044108,-0.5757405,-4.0908117
1227,2026-05-11 16:15:01.999729,2.364772,-0.14031307,0.3591673,2.043955,-0.34529158,-4.329202
1228,2026-05-11 16:15:02.002523,2.364772,-0.14031307,0.3591673,2.043955,-0.34529158,-4.329202
1229,2026-05-11 16:15:02.005112,2.364772,-0.14031307,0.3591673,1.9709567,-0.18646662,-4.488638
1230,2026-05-11 16:15:02.007814,2.364772,-0.14031307,0.3591673,1.9709567,-0.18646662,-4.488638
1231,2026-05-11 16:15:02.010355,2.364772,-0.14031307,0.3591673,1.9709567,-0.18646662,-4.488638
1232,2026-05-11 16:15:02.012875,2.364772,-0.14031307,0.3591673,1.9709567,-0.18646662,-4.488638
1233,2026-05-11 16:15:02.015901,2.364772,-0.14031307,0.3591673,1.9709567,-0.18646662,-4.488638
1234,2026-05-11 16:15:02.018893,2.364772,-0.14031307,0.3591673,1.9709567,-0.18646662,-4.488638
1235,2026-05-11 16:15:02.021638,2.1285388,-0.09762765,0.36026493,1.9709567,-0.18646662,-4.488638
1236,2026-05-11 16:15:02.024309,2.1285388,-0.09762765,0.36026493,1.9709567,-0.18646662,-4.488638
1237,2026-05-11 16:15:02.026874,2.1285388,-0.09762765,0.36026493,1.9709567,-0.18646662,-4.488638
1238,2026-05-11 16:15:02.029505,2.1285388,-0.09762765,0.36026493,1.9709567,-0.18646662,-4.488638
1239,2026-05-11 16:15:02.032549,2.017191,-0.026221042,0.3902057,1.8442022,-0.12156218,-4.39487
1240,2026-05-11 16:15:02.035535,2.017191,-0.026221042,0.3902057,1.8442022,-0.12156218,-4.39487
1241,2026-05-11 16:15:02.038169,2.017191,-0.026221042,0.3902057,1.8442022,-0.12156218,-4.39487
1242,2026-05-11 16:15:02.040778,2.017191,-0.026221042,0.3902057,1.8442022,-0.12156218,-4.39487
1243,2026-05-11 16:15:02.043644,2.017191,-0.026221042,0.3902057,1.8442022,-0.12156218,-4.39487
1244,2026-05-11 16:15:02.046263,2.017191,-0.026221042,0.3902057,1.8442022,-0.12156218,-4.39487
1245,2026-05-11 16:15:02.049339,2.2940364,-0.17208321,0.34904477,1.8442022,-0.12156218,-4.39487
1246,2026-05-11 16:15:02.052543,2.2940364,-0.17208321,0.34904477,1.4349225,0.6049093,-4.267199
1247,2026-05-11 16:15:02.055415,2.2255566,-0.21050009,0.42801276,1.4349225,0.6049093,-4.267199
1248,2026-05-11 16:15:02.058186,2.2255566,-0.21050009,0.42801276,1.4349225,0.6049093,-4.267199
1249,2026-05-11 16:15:02.060805,2.2255566,-0.21050009,0.42801276,1.4349225,0.6049093,-4.267199
1250,2026-05-11 16:15:02.063661,1.7004042,-0.26593015,0.49588257,1.8577939,0.7377725,-4.681977
1251,2026-05-11 16:15:02.066982,1.5632619,-0.24751444,0.4978339,2.182469,0.3680463,-4.669301
1252,2026-05-11 16:15:02.069887,1.5632619,-0.24751444,0.4978339,2.182469,0.3680463,-4.669301
