id,timestamp,acc_x,acc_y,acc_z,gyro_x,gyro_y,gyro_z
1,2026-05-11 16:18:29.012576,0.6737588,-0.29105356,0.5171033,0.090713486,0.17104226,-0.13225232
2,2026-05-11 16:18:29.023793,0.75809306,-0.26769856,0.5418609,0.0050396384,0.106137834,-0.14737125
3,2026-05-11 16:18:29.026925,0.75809306,-0.26769856,0.5418609,0.0050396384,0.106137834,-0.14737125
4,2026-05-11 16:18:29.029769,0.75809306,-0.26769856,0.5418609,0.0050396384,0.106137834,-0.14737125
5,2026-05-11 16:18:29.032679,0.75809306,-0.26769856,0.5418609,0.0050396384,0.106137834,-0.14737125
6,2026-05-11 16:18:29.035416,0.75809306,-0.26769856,0.5418609,0.0050396384,0.106137834,-0.14737125
7,2026-05-11 16:18:29.038251,0.75809306,-0.26769856,0.5418609,0.0050396384,0.106137834,-0.14737125
8,2026-05-11 16:18:29.041419,0.75809306,-0.26769856,0.5418609,0.0050396384,0.106137834,-0.14737125
9,2026-05-11 16:18:29.044237,0.75809306,-0.26769856,0.5418609,0.0050396384,0.106137834,-0.14737125
10,2026-05-11 16:18:29.046915,0.75809306,-0.26769856,0.5418609,0.0050396384,0.106137834,-0.14737125
11,2026-05-11 16:18:29.049610,0.75809306,-0.26769856,0.5418609,0.0050396384,0.106137834,-0.14737125
12,2026-05-11 16:18:29.052329,0.75809306,-0.26769856,0.5418609,-0.035277467,0.08506299,-0.3061962
13,2026-05-11 16:18:29.055319,0.75809306,-0.26769856,0.5418609,-0.035277467,0.08506299,-0.3061962
14,2026-05-11 16:18:29.058430,0.75809306,-0.26769856,0.5418609,-0.035277467,0.08506299,-0.3061962
15,2026-05-11 16:18:29.061126,0.75809306,-0.26769856,0.5418609,-0.035277467,0.08506299,-0.3061962
16,2026-05-11 16:18:29.063696,0.75809306,-0.26769856,0.5418609,-0.035277467,0.08506299,-0.3061962
17,2026-05-11 16:18:29.066490,0.75809306,-0.26769856,0.5418609,-0.035277467,0.08506299,-0.3061962
18,2026-05-11 16:18:29.069187,0.75809306,-0.26769856,0.5418609,-0.035277467,0.08506299,-0.3061962
19,2026-05-11 16:18:29.072059,0.75809306,-0.26769856,0.5418609,-0.035277467,0.08506299,-0.3061962
20,2026-05-11 16:18:29.075010,0.89108855,-0.23861149,0.6315613,-0.035277467,0.08506299,-0.3061962
21,2026-05-11 16:18:29.077725,0.89108855,-0.23861149,0.6315613,-0.035277467,0.08506299,-0.3061962
22,2026-05-11 16:18:29.080307,0.89108855,-0.23861149,0.6315613,-0.035277467,0.08506299,-0.3061962
23,2026-05-11 16:18:29.083035,0.89108855,-0.23861149,0.6315613,-0.035277467,0.08506299,-0.3061962
24,2026-05-11 16:18:29.085600,0.89108855,-0.23861149,0.6315613,-0.035277467,0.08506299,-0.3061962
25,2026-05-11 16:18:29.088764,0.89108855,-0.23861149,0.6315613,-0.035277467,0.08506299,-0.3061962
26,2026-05-11 16:18:29.091721,0.89108855,-0.23861149,0.6315613,-0.035277467,0.08506299,-0.3061962
27,2026-05-11 16:18:29.094455,0.89108855,-0.23861149,0.6315613,-0.035277467,0.08506299,-0.3061962
28,2026-05-11 16:18:29.097037,0.89108855,-0.23861149,0.6315613,-0.035277467,0.08506299,-0.3061962
29,2026-05-11 16:18:29.099833,0.89108855,-0.23861149,0.6315613,-0.035277467,0.08506299,-0.3061962
30,2026-05-11 16:18:29.102447,0.89108855,-0.23861149,0.6315613,-0.035277467,0.08506299,-0.3061962
31,2026-05-11 16:18:29.105608,0.89108855,-0.23861149,0.6315613,-0.035277467,0.08506299,-0.3061962
32,2026-05-11 16:18:29.108301,0.89108855,-0.23861149,0.6315613,-0.035277467,0.08506299,-0.3061962
33,2026-05-11 16:18:29.110893,0.89108855,-0.23861149,0.6315613,-0.035277467,0.08506299,-0.3061962
34,2026-05-11 16:18:29.113599,0.89108855,-0.23861149,0.6315613,-0.035277467,0.08506299,-0.3061962
35,2026-05-11 16:18:29.116247,0.89108855,-0.23861149,0.6315613,-0.035277467,0.08506299,-0.3061962
36,2026-05-11 16:18:29.119022,0.89108855,-0.23861149,0.6315613,-0.035277467,0.08506299,-0.3061962
37,2026-05-11 16:18:29.121884,0.89108855,-0.23861149,0.6315613,-0.035277467,0.08506299,-0.3061962
38,2026-05-11 16:18:29.124766,0.89108855,-0.23861149,0.6315613,-0.035277467,0.08506299,-0.3061962
39,2026-05-11 16:18:29.127377,0.89108855,-0.23861149,0.6315613,-0.035277467,0.08506299,-0.3061962
40,2026-05-11 16:18:29.129951,0.89108855,-0.23861149,0.6315613,-0.035277467,0.08506299,-0.3061962
41,2026-05-11 16:18:29.132504,0.89108855,-0.23861149,0.6315613,-0.035277467,0.08506299,-0.3061962
42,2026-05-11 16:18:29.135244,0.89108855,-0.23861149,0.6315613,-0.035277467,0.08506299,-0.3061962
43,2026-05-11 16:18:29.138120,0.9845696,-0.18842563,0.71437097,0.023518313,0.11636983,-0.5233588
44,2026-05-11 16:18:29.141249,0.9845696,-0.18842563,0.71437097,0.023518313,0.11636983,-0.5233588
45,2026-05-11 16:18:29.143951,0.9845696,-0.18842563,0.71437097,0.023518313,0.11636983,-0.5233588
46,2026-05-11 16:18:29.146587,0.9845696,-0.18842563,0.71437097,0.023518313,0.11636983,-0.5233588
47,2026-05-11 16:18:29.149270,0.9845696,-0.18842563,0.71437097,0.023518313,0.11636983,-0.5233588
48,2026-05-11 16:18:29.151935,0.9845696,-0.18842563,0.71437097,0.023518313,0.11636983,-0.5233588
49,2026-05-11 16:18:29.154699,0.9845696,-0.18842563,0.71437097,0.023518313,0.11636983,-0.5233588
50,2026-05-11 16:18:29.157712,0.9845696,-0.18842563,0.71437097,0.023518313,0.11636983,-0.5233588
51,2026-05-11 16:18:29.160551,0.9845696,-0.18842563,0.71437097,0.023518313,0.11636983,-0.5233588
52,2026-05-11 16:18:29.163235,0.9845696,-0.18842563,0.71437097,0.023518313,0.11636983,-0.5233588
53,2026-05-11 16:18:29.165858,0.9845696,-0.18842563,0.71437097,0.023518313,0.11636983,-0.5233588
54,2026-05-11 16:18:29.168437,0.9845696,-0.18842563,0.71437097,0.023518313,0.11636983,-0.5233588
55,2026-05-11 16:18:29.171497,1.0196327,-0.13092227,0.73510385,0.13439035,0.23197608,-0.77534074
56,2026-05-11 16:18:29.174422,1.0196327,-0.13092227,0.73510385,0.13439035,0.23197608,-0.77534074
57,2026-05-11 16:18:29.177057,1.0196327,-0.13092227,0.73510385,0.13439035,0.23197608,-0.77534074
58,2026-05-11 16:18:29.179754,1.0196327,-0.13092227,0.73510385,0.13439035,0.23197608,-0.77534074
59,2026-05-11 16:18:29.182367,1.0196327,-0.13092227,0.73510385,0.13439035,0.23197608,-0.77534074
60,2026-05-11 16:18:29.185072,1.0196327,-0.13092227,0.73510385,0.13439035,0.23197608,-0.77534074
61,2026-05-11 16:18:29.187654,1.0196327,-0.13092227,0.73510385,0.13439035,0.23197608,-0.77534074
62,2026-05-11 16:18:29.190814,1.0196327,-0.13092227,0.73510385,0.13439035,0.23197608,-0.77534074
63,2026-05-11 16:18:29.193668,1.0196327,-0.13092227,0.73510385,0.13439035,0.23197608,-0.77534074
64,2026-05-11 16:18:29.196332,1.0196327,-0.13092227,0.73510385,0.13439035,0.23197608,-0.77534074
65,2026-05-11 16:18:29.198985,1.0196327,-0.13092227,0.73510385,0.13439035,0.23197608,-0.77534074
66,2026-05-11 16:18:29.201823,1.0196327,-0.13092227,0.73510385,0.13439035,0.23197608,-0.77534074
67,2026-05-11 16:18:29.204628,1.0196327,-0.13092227,0.73510385,0.13439035,0.23197608,-0.77534074
68,2026-05-11 16:18:29.207626,1.0196327,-0.13092227,0.73510385,0.13439035,0.23197608,-0.77534074
69,2026-05-11 16:18:29.210229,1.0196327,-0.13092227,0.73510385,0.13439035,0.23197608,-0.77534074
70,2026-05-11 16:18:29.213074,1.0196327,-0.13092227,0.73510385,0.13439035,0.23197608,-0.77534074
71,2026-05-11 16:18:29.215780,1.0196327,-0.13092227,0.73510385,0.13439035,0.23197608,-0.77534074
72,2026-05-11 16:18:29.218629,1.0196327,-0.13092227,0.73510385,0.13439035,0.23197608,-0.77534074
73,2026-05-11 16:18:29.221675,1.0196327,-0.13092227,0.73510385,0.18829921,0.33322698,-0.92347556
74,2026-05-11 16:18:29.224800,1.0196327,-0.13092227,0.73510385,0.18829921,0.33322698,-0.92347556
75,2026-05-11 16:18:29.227395,1.0196327,-0.13092227,0.73510385,0.18829921,0.33322698,-0.92347556
76,2026-05-11 16:18:29.230113,1.0196327,-0.13092227,0.73510385,0.18829921,0.33322698,-0.92347556
77,2026-05-11 16:18:29.232723,1.0196327,-0.13092227,0.73510385,0.18829921,0.33322698,-0.92347556
78,2026-05-11 16:18:29.235496,1.0196327,-0.13092227,0.73510385,0.18829921,0.33322698,-0.92347556
79,2026-05-11 16:18:29.238539,1.0055465,-0.077809416,0.6913818,0.18829921,0.33322698,-0.92347556
80,2026-05-11 16:18:29.241519,1.0055465,-0.077809416,0.6913818,0.18829921,0.33322698,-0.92347556
81,2026-05-11 16:18:29.244121,1.0055465,-0.077809416,0.6913818,0.18829921,0.33322698,-0.92347556
82,2026-05-11 16:18:29.246943,1.0055465,-0.077809416,0.6913818,0.18829921,0.33322698,-0.92347556
83,2026-05-11 16:18:29.249765,1.0055465,-0.077809416,0.6913818,0.18829921,0.33322698,-0.92347556
84,2026-05-11 16:18:29.252560,1.0055465,-0.077809416,0.6913818,0.18829921,0.33322698,-0.92347556
85,2026-05-11 16:18:29.255698,1.0055465,-0.077809416,0.6913818,0.18829921,0.33322698,-0.92347556
86,2026-05-11 16:18:29.258475,1.0055465,-0.077809416,0.6913818,0.18829921,0.33322698,-0.92347556
87,2026-05-11 16:18:29.261098,1.0055465,-0.077809416,0.6913818,0.18829921,0.33322698,-0.92347556
88,2026-05-11 16:18:29.263766,1.0055465,-0.077809416,0.6913818,0.18829921,0.33322698,-0.92347556
89,2026-05-11 16:18:29.266327,1.0055465,-0.077809416,0.6913818,0.18829921,0.33322698,-0.92347556
90,2026-05-11 16:18:29.269014,1.0055465,-0.077809416,0.6913818,0.18829921,0.33322698,-0.92347556
91,2026-05-11 16:18:29.271696,1.0055465,-0.077809416,0.6913818,0.18829921,0.33322698,-0.92347556
92,2026-05-11 16:18:29.274610,1.0055465,-0.077809416,0.6913818,0.18829921,0.33322698,-0.92347556
93,2026-05-11 16:18:29.277317,1.0055465,-0.077809416,0.6913818,0.18829921,0.33322698,-0.92347556
94,2026-05-11 16:18:29.279867,1.0055465,-0.077809416,0.6913818,0.18829921,0.33322698,-0.92347556
95,2026-05-11 16:18:29.282439,1.0055465,-0.077809416,0.6913818,0.18829921,0.33322698,-0.92347556
96,2026-05-11 16:18:29.285249,1.0055465,-0.077809416,0.6913818,0.18829921,0.33322698,-0.92347556
97,2026-05-11 16:18:29.287966,0.9750569,-0.037624147,0.5643012,0.18829921,0.33322698,-0.92347556
98,2026-05-11 16:18:29.291084,0.9750569,-0.037624147,0.5643012,0.18829921,0.33322698,-0.92347556
99,2026-05-11 16:18:29.293786,0.9750569,-0.037624147,0.5643012,0.18829921,0.33322698,-0.92347556
100,2026-05-11 16:18:29.296381,0.9750569,-0.037624147,0.5643012,0.18829921,0.33322698,-0.92347556
101,2026-05-11 16:18:29.299175,0.9750569,-0.037624147,0.5643012,0.18829921,0.33322698,-0.92347556
102,2026-05-11 16:18:29.301792,0.9750569,-0.037624147,0.5643012,0.15225816,0.41645738,-1.0201449
103,2026-05-11 16:18:29.304474,0.9750569,-0.037624147,0.5643012,0.15225816,0.41645738,-1.0201449
104,2026-05-11 16:18:29.321927,2.1702487,0.8132182,2.4544725,3.4782667,2.5697575,-3.530343
105,2026-05-11 16:18:29.333593,2.1702487,0.8132182,2.4544725,3.73819,2.5734227,-3.6566393
106,2026-05-11 16:18:29.337465,2.1702487,0.8132182,2.4544725,3.73819,2.5734227,-3.6566393
107,2026-05-11 16:18:29.342613,2.1702487,0.8132182,2.4544725,3.73819,2.5734227,-3.6566393
108,2026-05-11 16:18:29.351196,2.1702487,0.8132182,2.4544725,3.73819,2.5734227,-3.6566393
109,2026-05-11 16:18:29.354064,2.1702487,0.8132182,2.4544725,3.73819,2.5734227,-3.6566393
110,2026-05-11 16:18:29.357176,2.1702487,0.8132182,2.4544725,3.73819,2.5734227,-3.6566393
111,2026-05-11 16:18:29.360004,2.1702487,0.8132182,2.4544725,3.73819,2.5734227,-3.6566393
112,2026-05-11 16:18:29.362727,2.1702487,0.8132182,2.4544725,3.73819,2.5734227,-3.6566393
113,2026-05-11 16:18:29.365336,2.1702487,0.8132182,2.4544725,3.73819,2.5734227,-3.6566393
114,2026-05-11 16:18:29.368126,2.1702487,0.8132182,2.4544725,3.73819,2.5734227,-3.6566393
115,2026-05-11 16:18:29.370730,2.1702487,0.8132182,2.4544725,3.73819,2.5734227,-3.6566393
116,2026-05-11 16:18:29.373714,2.1702487,0.8132182,2.4544725,3.73819,2.5734227,-3.6566393
117,2026-05-11 16:18:29.376385,2.1702487,0.8132182,2.4544725,3.73819,2.5734227,-3.6566393
118,2026-05-11 16:18:29.378951,2.1702487,0.8132182,2.4544725,3.73819,2.5734227,-3.6566393
119,2026-05-11 16:18:29.381519,2.1702487,0.8132182,2.4544725,3.73819,2.5734227,-3.6566393
120,2026-05-11 16:18:29.384336,2.1702487,0.8132182,2.4544725,3.73819,2.5734227,-3.6566393
121,2026-05-11 16:18:29.386994,2.1702487,0.8132182,2.4544725,3.73819,2.5734227,-3.6566393
122,2026-05-11 16:18:29.390161,2.1702487,0.8132182,2.4544725,3.73819,2.5734227,-3.6566393
123,2026-05-11 16:18:29.392877,2.1702487,0.8132182,2.4544725,3.73819,2.5734227,-3.6566393
124,2026-05-11 16:18:29.395643,2.1702487,0.8132182,2.4544725,3.73819,2.5734227,-3.6566393
125,2026-05-11 16:18:29.398250,2.1702487,0.8132182,2.4544725,3.73819,2.5734227,-3.6566393
126,2026-05-11 16:18:29.400932,2.1702487,0.8132182,2.4544725,3.73819,2.5734227,-3.6566393
127,2026-05-11 16:18:29.403515,2.1702487,0.8132182,2.4544725,3.73819,2.5734227,-3.6566393
128,2026-05-11 16:18:29.406554,2.1702487,0.8132182,2.4544725,3.73819,2.5734227,-3.6566393
129,2026-05-11 16:18:29.409254,2.1702487,0.8132182,2.4544725,3.73819,2.5734227,-3.6566393
130,2026-05-11 16:18:29.411812,2.1702487,0.8132182,2.4544725,3.73819,2.5734227,-3.6566393
131,2026-05-11 16:18:29.414374,2.1702487,0.8132182,2.4544725,3.73819,2.5734227,-3.6566393
132,2026-05-11 16:18:29.417139,2.1702487,0.8132182,2.4544725,3.73819,2.5734227,-3.6566393
133,2026-05-11 16:18:29.419738,2.1702487,0.8132182,2.4544725,3.73819,2.5734227,-3.6566393
134,2026-05-11 16:18:29.422759,2.1702487,0.8132182,2.4544725,3.73819,2.5734227,-3.6566393
135,2026-05-11 16:18:29.425537,2.1702487,0.8132182,2.4544725,3.73819,2.5734227,-3.6566393
136,2026-05-11 16:18:29.428410,2.1702487,0.8132182,2.4544725,3.73819,2.5734227,-3.6566393
137,2026-05-11 16:18:29.431007,2.1008542,0.67772245,2.5186226,3.73819,2.5734227,-3.6566393
138,2026-05-11 16:18:29.433645,2.1008542,0.67772245,2.5186226,3.73819,2.5734227,-3.6566393
139,2026-05-11 16:18:29.436169,2.1008542,0.67772245,2.5186226,3.73819,2.5734227,-3.6566393
140,2026-05-11 16:18:29.439156,2.1008542,0.67772245,2.5186226,3.73819,2.5734227,-3.6566393
141,2026-05-11 16:18:29.441850,2.1008542,0.67772245,2.5186226,3.73819,2.5734227,-3.6566393
142,2026-05-11 16:18:29.444449,2.1008542,0.67772245,2.5186226,3.73819,2.5734227,-3.6566393
143,2026-05-11 16:18:29.447051,2.1008542,0.67772245,2.5186226,3.73819,2.5734227,-3.6566393
144,2026-05-11 16:18:29.449666,2.1008542,0.67772245,2.5186226,3.73819,2.5734227,-3.6566393
145,2026-05-11 16:18:29.452229,2.1008542,0.67772245,2.5186226,3.73819,2.5734227,-3.6566393
146,2026-05-11 16:18:29.455309,2.1008542,0.67772245,2.5186226,3.73819,2.5734227,-3.6566393
147,2026-05-11 16:18:29.458112,2.1008542,0.67772245,2.5186226,3.73819,2.5734227,-3.6566393
148,2026-05-11 16:18:29.460759,2.1008542,0.67772245,2.5186226,3.73819,2.5734227,-3.6566393
149,2026-05-11 16:18:29.463382,2.1008542,0.67772245,2.5186226,3.73819,2.5734227,-3.6566393
150,2026-05-11 16:18:29.465965,2.1008542,0.67772245,2.5186226,3.73819,2.5734227,-3.6566393
151,2026-05-11 16:18:29.468704,2.1008542,0.67772245,2.5186226,3.73819,2.5734227,-3.6566393
152,2026-05-11 16:18:29.471695,2.1008542,0.67772245,2.5186226,3.73819,2.5734227,-3.6566393
153,2026-05-11 16:18:29.474725,2.1008542,0.67772245,2.5186226,3.73819,2.5734227,-3.6566393
154,2026-05-11 16:18:29.477334,2.1008542,0.67772245,2.5186226,3.73819,2.5734227,-3.6566393
155,2026-05-11 16:18:29.479942,2.1008542,0.67772245,2.5186226,3.73819,2.5734227,-3.6566393
156,2026-05-11 16:18:29.482510,2.1008542,0.67772245,2.5186226,3.73819,2.5734227,-3.6566393
157,2026-05-11 16:18:29.485261,2.1008542,0.67772245,2.5186226,3.73819,2.5734227,-3.6566393
158,2026-05-11 16:18:29.488110,2.1008542,0.67772245,2.5186226,3.73819,2.5734227,-3.6566393
159,2026-05-11 16:18:29.491057,2.1008542,0.67772245,2.5186226,3.73819,2.5734227,-3.6566393
160,2026-05-11 16:18:29.493636,2.1008542,0.67772245,2.5186226,3.73819,2.5734227,-3.6566393
161,2026-05-11 16:18:29.496233,2.1008542,0.67772245,2.5186226,3.73819,2.5734227,-3.6566393
162,2026-05-11 16:18:29.498797,2.1008542,0.67772245,2.5186226,3.73819,2.5734227,-3.6566393
163,2026-05-11 16:18:29.501335,2.1008542,0.67772245,2.5186226,3.73819,2.5734227,-3.6566393
164,2026-05-11 16:18:29.503860,2.1008542,0.67772245,2.5186226,3.73819,2.5734227,-3.6566393
165,2026-05-11 16:18:29.506723,2.1008542,0.67772245,2.5186226,3.73819,2.5734227,-3.6566393
166,2026-05-11 16:18:29.509358,2.1008542,0.67772245,2.5186226,3.73819,2.5734227,-3.6566393
167,2026-05-11 16:18:29.512000,2.1008542,0.67772245,2.5186226,3.73819,2.5734227,-3.6566393
168,2026-05-11 16:18:29.514513,2.1008542,0.67772245,2.5186226,3.73819,2.5734227,-3.6566393
169,2026-05-11 16:18:29.517263,2.1008542,0.67772245,2.5186226,3.73819,2.5734227,-3.6566393
170,2026-05-11 16:18:29.519853,2.1008542,0.67772245,2.5186226,3.73819,2.5734227,-3.6566393
171,2026-05-11 16:18:29.523013,2.1008542,0.67772245,2.5186226,3.73819,2.5734227,-3.6566393
172,2026-05-11 16:18:29.525922,2.1008542,0.67772245,2.5186226,3.73819,2.5734227,-3.6566393
173,2026-05-11 16:18:29.528528,2.1008542,0.67772245,2.5186226,3.73819,2.5734227,-3.6566393
174,2026-05-11 16:18:29.531378,2.1008542,0.67772245,2.5186226,3.73819,2.5734227,-3.6566393
175,2026-05-11 16:18:29.533977,2.1008542,0.67772245,2.5186226,3.73819,2.5734227,-3.6566393
176,2026-05-11 16:18:29.536550,2.1008542,0.67772245,2.5186226,3.73819,2.5734227,-3.6566393
177,2026-05-11 16:18:29.539508,2.1008542,0.67772245,2.5186226,3.73819,2.5734227,-3.6566393
178,2026-05-11 16:18:29.542530,2.1008542,0.67772245,2.5186226,3.73819,2.5734227,-3.6566393
179,2026-05-11 16:18:29.545168,2.1008542,0.67772245,2.5186226,3.73819,2.5734227,-3.6566393
180,2026-05-11 16:18:29.547756,2.1008542,0.67772245,2.5186226,3.73819,2.5734227,-3.6566393
181,2026-05-11 16:18:29.550458,2.1008542,0.67772245,2.5186226,3.73819,2.5734227,-3.6566393
182,2026-05-11 16:18:29.553027,2.1008542,0.67772245,2.5186226,3.73819,2.5734227,-3.6566393
183,2026-05-11 16:18:29.556037,2.1008542,0.67772245,2.5186226,3.73819,2.5734227,-3.6566393
184,2026-05-11 16:18:29.558786,2.1008542,0.67772245,2.5186226,3.73819,2.5734227,-3.6566393
185,2026-05-11 16:18:29.561400,2.1008542,0.67772245,2.5186226,3.73819,2.5734227,-3.6566393
186,2026-05-11 16:18:29.563998,2.1008542,0.67772245,2.5186226,3.73819,2.5734227,-3.6566393
187,2026-05-11 16:18:29.566699,2.1008542,0.67772245,2.5186226,3.73819,2.5734227,-3.6566393
188,2026-05-11 16:18:29.569275,2.1008542,0.67772245,2.5186226,3.73819,2.5734227,-3.6566393
189,2026-05-11 16:18:29.572388,2.1008542,0.67772245,2.5186226,3.73819,2.5734227,-3.6566393
190,2026-05-11 16:18:29.575056,2.1008542,0.67772245,2.5186226,3.73819,2.5734227,-3.6566393
191,2026-05-11 16:18:29.577642,2.1008542,0.67772245,2.5186226,3.73819,2.5734227,-3.6566393
192,2026-05-11 16:18:29.580500,2.1008542,0.67772245,2.5186226,3.73819,2.5734227,-3.6566393
193,2026-05-11 16:18:29.583268,2.1008542,0.67772245,2.5186226,3.73819,2.5734227,-3.6566393
194,2026-05-11 16:18:29.585965,2.1008542,0.67772245,2.5186226,3.73819,2.5734227,-3.6566393
195,2026-05-11 16:18:29.588923,2.1008542,0.67772245,2.5186226,3.73819,2.5734227,-3.6566393
196,2026-05-11 16:18:29.591728,2.1008542,0.67772245,2.5186226,3.73819,2.5734227,-3.6566393
197,2026-05-11 16:18:29.594323,2.1008542,0.67772245,2.5186226,3.73819,2.5734227,-3.6566393
198,2026-05-11 16:18:29.597003,2.1153674,0.56271577,2.5986881,3.73819,2.5734227,-3.6566393
199,2026-05-11 16:18:29.599559,2.1153674,0.56271577,2.5986881,3.73819,2.5734227,-3.6566393
200,2026-05-11 16:18:29.602312,2.1153674,0.56271577,2.5986881,3.73819,2.5734227,-3.6566393
201,2026-05-11 16:18:29.605390,2.1153674,0.56271577,2.5986881,3.73819,2.5734227,-3.6566393
202,2026-05-11 16:18:29.608173,2.1153674,0.56271577,2.5986881,3.73819,2.5734227,-3.6566393
203,2026-05-11 16:18:29.610753,2.1153674,0.56271577,2.5986881,3.73819,2.5734227,-3.6566393
204,2026-05-11 16:18:29.613572,2.1153674,0.56271577,2.5986881,3.73819,2.5734227,-3.6566393
205,2026-05-11 16:18:29.616158,2.1153674,0.56271577,2.5986881,3.73819,2.5734227,-3.6566393
206,2026-05-11 16:18:29.619005,2.1153674,0.56271577,2.5986881,3.73819,2.5734227,-3.6566393
207,2026-05-11 16:18:29.622311,2.1153674,0.56271577,2.5986881,3.73819,2.5734227,-3.6566393
208,2026-05-11 16:18:29.625252,2.1153674,0.56271577,2.5986881,3.73819,2.5734227,-3.6566393
209,2026-05-11 16:18:29.627872,2.1153674,0.56271577,2.5986881,3.73819,2.5734227,-3.6566393
210,2026-05-11 16:18:29.630601,2.1153674,0.56271577,2.5986881,3.73819,2.5734227,-3.6566393
211,2026-05-11 16:18:29.633182,2.1153674,0.56271577,2.5986881,3.73819,2.5734227,-3.6566393
212,2026-05-11 16:18:29.635914,2.1153674,0.56271577,2.5986881,3.73819,2.5734227,-3.6566393
213,2026-05-11 16:18:29.638778,2.1153674,0.56271577,2.5986881,3.73819,2.5734227,-3.6566393
214,2026-05-11 16:18:29.641577,2.1153674,0.56271577,2.5986881,3.73819,2.5734227,-3.6566393
215,2026-05-11 16:18:29.644350,2.1153674,0.56271577,2.5986881,3.73819,2.5734227,-3.6566393
216,2026-05-11 16:18:29.646938,2.1153674,0.56271577,2.5986881,3.73819,2.5734227,-3.6566393
217,2026-05-11 16:18:29.649548,2.1153674,0.56271577,2.5986881,3.73819,2.5734227,-3.6566393
218,2026-05-11 16:18:29.652247,2.1153674,0.56271577,2.5986881,3.73819,2.5734227,-3.6566393
219,2026-05-11 16:18:29.655332,2.1153674,0.56271577,2.5986881,3.73819,2.5734227,-3.6566393
220,2026-05-11 16:18:29.658138,2.1153674,0.56271577,2.5986881,3.73819,2.5734227,-3.6566393
221,2026-05-11 16:18:29.660857,2.1153674,0.56271577,2.5986881,4.1040983,2.3348796,-3.7501018
222,2026-05-11 16:18:29.663454,2.1153674,0.56271577,2.5986881,4.1040983,2.3348796,-3.7501018
223,2026-05-11 16:18:29.666219,2.2708032,0.3070301,2.7510142,4.8560734,1.5673275,-4.0022364
224,2026-05-11 16:18:29.668975,2.2708032,0.3070301,2.7510142,4.8560734,1.5673275,-4.0022364
225,2026-05-11 16:18:29.672134,2.2708032,0.3070301,2.7510142,4.8560734,1.5673275,-4.0022364
226,2026-05-11 16:18:29.674859,2.2708032,0.3070301,2.7510142,4.8560734,1.5673275,-4.0022364
227,2026-05-11 16:18:29.677432,2.2708032,0.3070301,2.7510142,4.8560734,1.5673275,-4.0022364
228,2026-05-11 16:18:29.680231,2.2708032,0.3070301,2.7510142,4.8560734,1.5673275,-4.0022364
229,2026-05-11 16:18:29.682899,2.2708032,0.3070301,2.7510142,4.8560734,1.5673275,-4.0022364
230,2026-05-11 16:18:29.685577,2.2708032,0.3070301,2.7510142,4.8560734,1.5673275,-4.0022364
231,2026-05-11 16:18:29.688541,2.2944021,0.19104773,2.7186344,5.357899,1.0329732,-4.261396
232,2026-05-11 16:18:29.691413,2.2944021,0.19104773,2.7186344,5.357899,1.0329732,-4.261396
233,2026-05-11 16:18:29.694020,2.2944021,0.19104773,2.7186344,5.357899,1.0329732,-4.261396
234,2026-05-11 16:18:29.696862,2.2944021,0.19104773,2.7186344,5.357899,1.0329732,-4.261396
235,2026-05-11 16:18:29.699576,2.2944021,0.19104773,2.7186344,5.357899,1.0329732,-4.261396
236,2026-05-11 16:18:29.702215,2.2944021,0.19104773,2.7186344,5.357899,1.0329732,-4.261396
237,2026-05-11 16:18:29.705093,2.2944021,0.19104773,2.7186344,5.357899,1.0329732,-4.261396
238,2026-05-11 16:18:29.708110,2.2944021,0.19104773,2.7186344,5.357899,1.0329732,-4.261396
239,2026-05-11 16:18:29.710781,2.2944021,0.19104773,2.7186344,5.357899,1.0329732,-4.261396
240,2026-05-11 16:18:29.713576,2.2944021,0.19104773,2.7186344,5.357899,1.0329732,-4.261396
241,2026-05-11 16:18:29.716312,2.2944021,0.19104773,2.7186344,5.7939043,0.6000224,-4.6561675
242,2026-05-11 16:18:29.718989,2.2944021,0.19104773,2.7186344,5.7939043,0.6000224,-4.6561675
243,2026-05-11 16:18:29.722122,2.1748831,-0.039392542,2.7453432,5.974109,0.33460143,-4.969389
244,2026-05-11 16:18:29.725515,2.1748831,-0.039392542,2.7453432,5.974109,0.33460143,-4.969389
245,2026-05-11 16:18:29.728270,2.1748831,-0.039392542,2.7453432,5.974109,0.33460143,-4.969389
246,2026-05-11 16:18:29.730963,2.1748831,-0.039392542,2.7453432,5.974109,0.33460143,-4.969389
247,2026-05-11 16:18:29.733558,2.1748831,-0.039392542,2.7453432,5.974109,0.33460143,-4.969389
248,2026-05-11 16:18:29.736254,2.1748831,-0.039392542,2.7453432,5.974109,0.33460143,-4.969389
249,2026-05-11 16:18:29.739919,1.9539555,-0.42154896,3.006334,6.3421555,0.24617869,-5.07965
250,2026-05-11 16:18:29.743225,1.9539555,-0.42154896,3.006334,6.3421555,0.24617869,-5.07965
251,2026-05-11 16:18:29.746027,1.9539555,-0.42154896,3.006334,6.3421555,0.24617869,-5.07965
252,2026-05-11 16:18:29.748679,1.9539555,-0.42154896,3.006334,6.3421555,0.24617869,-5.07965
253,2026-05-11 16:18:29.751279,1.9539555,-0.42154896,3.006334,6.3421555,0.24617869,-5.07965
254,2026-05-11 16:18:29.754101,1.9539555,-0.42154896,3.006334,6.3421555,0.24617869,-5.07965
255,2026-05-11 16:18:29.757207,1.9539555,-0.42154896,3.006334,6.3421555,0.24617869,-5.07965
256,2026-05-11 16:18:29.760035,2.0536563,-0.26153967,2.8795583,6.3421555,0.24617869,-5.07965
257,2026-05-11 16:18:29.762635,2.0536563,-0.26153967,2.8795583,6.3421555,0.24617869,-5.07965
258,2026-05-11 16:18:29.765208,2.0536563,-0.26153967,2.8795583,6.3421555,0.24617869,-5.07965
259,2026-05-11 16:18:29.768089,2.0536563,-0.26153967,2.8795583,6.3421555,0.24617869,-5.07965
260,2026-05-11 16:18:29.770717,2.0536563,-0.26153967,2.8795583,6.3421555,0.24617869,-5.07965
261,2026-05-11 16:18:29.773848,2.0536563,-0.26153967,2.8795583,6.3421555,0.24617869,-5.07965
262,2026-05-11 16:18:29.776547,2.0536563,-0.26153967,2.8795583,6.3421555,0.24617869,-5.07965
263,2026-05-11 16:18:29.779110,2.0536563,-0.26153967,2.8795583,6.3421555,0.24617869,-5.07965
264,2026-05-11 16:18:29.781734,2.0536563,-0.26153967,2.8795583,6.3421555,0.24617869,-5.07965
265,2026-05-11 16:18:29.784596,2.0536563,-0.26153967,2.8795583,6.3421555,0.24617869,-5.07965
266,2026-05-11 16:18:29.787382,2.0536563,-0.26153967,2.8795583,6.3421555,0.24617869,-5.07965
267,2026-05-11 16:18:29.790562,2.0536563,-0.26153967,2.8795583,6.3421555,0.24617869,-5.07965
268,2026-05-11 16:18:29.793225,2.0536563,-0.26153967,2.8795583,6.3421555,0.24617869,-5.07965
269,2026-05-11 16:18:29.795880,2.0536563,-0.26153967,2.8795583,6.3421555,0.24617869,-5.07965
270,2026-05-11 16:18:29.798495,2.0536563,-0.26153967,2.8795583,6.09613,0.26236662,-5.0863695
271,2026-05-11 16:18:29.801274,2.0536563,-0.26153967,2.8795583,6.09613,0.26236662,-5.0863695
272,2026-05-11 16:18:29.803927,2.0536563,-0.26153967,2.8795583,6.09613,0.26236662,-5.0863695
273,2026-05-11 16:18:29.807282,2.0536563,-0.26153967,2.8795583,6.09613,0.26236662,-5.0863695
274,2026-05-11 16:18:29.810298,2.0536563,-0.26153967,2.8795583,6.09613,0.26236662,-5.0863695
275,2026-05-11 16:18:29.812929,2.0536563,-0.26153967,2.8795583,6.09613,0.26236662,-5.0863695
276,2026-05-11 16:18:29.815698,1.8116301,-0.6515624,3.1998818,6.09613,0.26236662,-5.0863695
277,2026-05-11 16:18:29.818321,1.8116301,-0.6515624,3.1998818,6.09613,0.26236662,-5.0863695
278,2026-05-11 16:18:29.821118,1.8116301,-0.6515624,3.1998818,6.09613,0.26236662,-5.0863695
279,2026-05-11 16:18:29.824545,1.8116301,-0.6515624,3.1998818,6.09613,0.26236662,-5.0863695
280,2026-05-11 16:18:29.827393,1.8116301,-0.6515624,3.1998818,6.09613,0.26236662,-5.0863695
281,2026-05-11 16:18:29.830016,1.8116301,-0.6515624,3.1998818,6.09613,0.26236662,-5.0863695
282,2026-05-11 16:18:29.832604,1.8116301,-0.6515624,3.1998818,6.09613,0.26236662,-5.0863695
283,2026-05-11 16:18:29.835381,1.8116301,-0.6515624,3.1998818,6.09613,0.26236662,-5.0863695
284,2026-05-11 16:18:29.838630,1.7369306,-1.1206142,3.0887778,7.8528256,-0.38453966,-4.794681
285,2026-05-11 16:18:29.841536,1.7369306,-1.1206142,3.0887778,7.8528256,-0.38453966,-4.794681
286,2026-05-11 16:18:29.844224,1.7369306,-1.1206142,3.0887778,7.8528256,-0.38453966,-4.794681
287,2026-05-11 16:18:29.846895,1.7369306,-1.1206142,3.0887778,7.8528256,-0.38453966,-4.794681
288,2026-05-11 16:18:29.849616,1.7369306,-1.1206142,3.0887778,7.8528256,-0.38453966,-4.794681
289,2026-05-11 16:18:29.852256,1.7369306,-1.1206142,3.0887778,7.8528256,-0.38453966,-4.794681
290,2026-05-11 16:18:29.855294,1.7369306,-1.1206142,3.0887778,7.8528256,-0.38453966,-4.794681
291,2026-05-11 16:18:29.858125,1.7369306,-1.1206142,3.0887778,7.8528256,-0.38453966,-4.794681
292,2026-05-11 16:18:29.860739,1.7369306,-1.1206142,3.0887778,8.701776,-0.7510588,-4.7256536
293,2026-05-11 16:18:29.863603,1.7369306,-1.1206142,3.0887778,8.701776,-0.7510588,-4.7256536
294,2026-05-11 16:18:29.866180,1.7369306,-1.1206142,3.0887778,8.701776,-0.7510588,-4.7256536
295,2026-05-11 16:18:29.868825,1.7369306,-1.1206142,3.0887778,8.701776,-0.7510588,-4.7256536
296,2026-05-11 16:18:29.871879,1.7369306,-1.1206142,3.0887778,8.701776,-0.7510588,-4.7256536
297,2026-05-11 16:18:29.874837,1.7369306,-1.1206142,3.0887778,8.701776,-0.7510588,-4.7256536
298,2026-05-11 16:18:29.877564,1.7369306,-1.1206142,3.0887778,8.701776,-0.7510588,-4.7256536
299,2026-05-11 16:18:29.880273,1.7369306,-1.1206142,3.0887778,8.701776,-0.7510588,-4.7256536
300,2026-05-11 16:18:29.882927,1.7369306,-1.1206142,3.0887778,8.701776,-0.7510588,-4.7256536
301,2026-05-11 16:18:29.885490,1.7369306,-1.1206142,3.0887778,8.701776,-0.7510588,-4.7256536
302,2026-05-11 16:18:29.888238,1.7369306,-1.1206142,3.0887778,8.701776,-0.7510588,-4.7256536
303,2026-05-11 16:18:29.891394,1.7369306,-1.1206142,3.0887778,8.701776,-0.7510588,-4.7256536
304,2026-05-11 16:18:29.894002,1.7369306,-1.1206142,3.0887778,8.701776,-0.7510588,-4.7256536
305,2026-05-11 16:18:29.896833,1.7369306,-1.1206142,3.0887778,8.701776,-0.7510588,-4.7256536
306,2026-05-11 16:18:29.899539,1.7369306,-1.1206142,3.0887778,8.701776,-0.7510588,-4.7256536
307,2026-05-11 16:18:29.902224,1.7369306,-1.1206142,3.0887778,8.701776,-0.7510588,-4.7256536
308,2026-05-11 16:18:29.905275,1.7369306,-1.1206142,3.0887778,8.701776,-0.7510588,-4.7256536
309,2026-05-11 16:18:29.908136,1.7369306,-1.1206142,3.0887778,8.701776,-0.7510588,-4.7256536
310,2026-05-11 16:18:29.910831,1.7369306,-1.1206142,3.0887778,8.701776,-0.7510588,-4.7256536
311,2026-05-11 16:18:29.913397,1.7369306,-1.1206142,3.0887778,8.701776,-0.7510588,-4.7256536
312,2026-05-11 16:18:29.916000,1.7369306,-1.1206142,3.0887778,8.701776,-0.7510588,-4.7256536
313,2026-05-11 16:18:29.918800,1.7369306,-1.1206142,3.0887778,8.701776,-0.7510588,-4.7256536
314,2026-05-11 16:18:29.921599,1.7369306,-1.1206142,3.0887778,8.701776,-0.7510588,-4.7256536
315,2026-05-11 16:18:29.924901,1.7369306,-1.1206142,3.0887778,8.701776,-0.7510588,-4.7256536
316,2026-05-11 16:18:29.927778,1.7369306,-1.1206142,3.0887778,8.701776,-0.7510588,-4.7256536
317,2026-05-11 16:18:29.930465,1.7369306,-1.1206142,3.0887778,8.701776,-0.7510588,-4.7256536
318,2026-05-11 16:18:29.933287,1.7369306,-1.1206142,3.0887778,8.701776,-0.7510588,-4.7256536
319,2026-05-11 16:18:29.935962,1.7369306,-1.1206142,3.0887778,8.701776,-0.7510588,-4.7256536
320,2026-05-11 16:18:29.939063,1.7369306,-1.1206142,3.0887778,8.701776,-0.7510588,-4.7256536
321,2026-05-11 16:18:29.942328,1.7369306,-1.1206142,3.0887778,8.701776,-0.7510588,-4.7256536
322,2026-05-11 16:18:29.945086,1.7369306,-1.1206142,3.0887778,8.701776,-0.7510588,-4.7256536
323,2026-05-11 16:18:29.947816,1.7369306,-1.1206142,3.0887778,8.701776,-0.7510588,-4.7256536
324,2026-05-11 16:18:29.950475,1.7369306,-1.1206142,3.0887778,8.701776,-0.7510588,-4.7256536
325,2026-05-11 16:18:29.953176,1.7369306,-1.1206142,3.0887778,8.701776,-0.7510588,-4.7256536
326,2026-05-11 16:18:29.956259,1.7369306,-1.1206142,3.0887778,8.701776,-0.7510588,-4.7256536
327,2026-05-11 16:18:29.958996,1.7369306,-1.1206142,3.0887778,8.701776,-0.7510588,-4.7256536
328,2026-05-11 16:18:29.961585,1.7369306,-1.1206142,3.0887778,8.701776,-0.7510588,-4.7256536
329,2026-05-11 16:18:29.964177,1.7369306,-1.1206142,3.0887778,8.701776,-0.7510588,-4.7256536
330,2026-05-11 16:18:29.966774,1.7369306,-1.1206142,3.0887778,8.701776,-0.7510588,-4.7256536
331,2026-05-11 16:18:29.969314,1.7369306,-1.1206142,3.0887778,8.701776,-0.7510588,-4.7256536
332,2026-05-11 16:18:29.972329,1.7369306,-1.1206142,3.0887778,8.701776,-0.7510588,-4.7256536
333,2026-05-11 16:18:29.975173,1.7369306,-1.1206142,3.0887778,8.701776,-0.7510588,-4.7256536
334,2026-05-11 16:18:29.977906,1.7369306,-1.1206142,3.0887778,8.701776,-0.7510588,-4.7256536
335,2026-05-11 16:18:29.980612,1.7369306,-1.1206142,3.0887778,8.701776,-0.7510588,-4.7256536
336,2026-05-11 16:18:29.983206,1.7369306,-1.1206142,3.0887778,8.701776,-0.7510588,-4.7256536
337,2026-05-11 16:18:29.985818,1.7369306,-1.1206142,3.0887778,8.701776,-0.7510588,-4.7256536
338,2026-05-11 16:18:29.988712,1.7369306,-1.1206142,3.0887778,8.701776,-0.7510588,-4.7256536
339,2026-05-11 16:18:29.991498,1.7369306,-1.1206142,3.0887778,8.701776,-0.7510588,-4.7256536
340,2026-05-11 16:18:29.994299,1.7369306,-1.1206142,3.0887778,8.701776,-0.7510588,-4.7256536
341,2026-05-11 16:18:29.996905,1.7369306,-1.1206142,3.0887778,8.701776,-0.7510588,-4.7256536
342,2026-05-11 16:18:29.999542,1.7369306,-1.1206142,3.0887778,8.701776,-0.7510588,-4.7256536
343,2026-05-11 16:18:30.002174,1.7369306,-1.1206142,3.0887778,8.701776,-0.7510588,-4.7256536
344,2026-05-11 16:18:30.005211,1.7369306,-1.1206142,3.0887778,8.701776,-0.7510588,-4.7256536
345,2026-05-11 16:18:30.008124,1.7369306,-1.1206142,3.0887778,8.701776,-0.7510588,-4.7256536
346,2026-05-11 16:18:30.010752,1.7369306,-1.1206142,3.0887778,9.160077,-1.0175488,-4.786587
347,2026-05-11 16:18:30.013585,1.7369306,-1.1206142,3.0887778,9.160077,-1.0175488,-4.786587
348,2026-05-11 16:18:30.016429,1.7369306,-1.1206142,3.0887778,9.160077,-1.0175488,-4.786587
349,2026-05-11 16:18:30.019587,1.7369306,-1.1206142,3.0887778,9.160077,-1.0175488,-4.786587
350,2026-05-11 16:18:30.023222,1.7369306,-1.1206142,3.0887778,9.160077,-1.0175488,-4.786587
351,2026-05-11 16:18:30.026855,1.7369306,-1.1206142,3.0887778,9.160077,-1.0175488,-4.786587
352,2026-05-11 16:18:30.030209,1.7850431,-1.1963502,2.772296,9.160077,-1.0175488,-4.786587
353,2026-05-11 16:18:30.033246,1.7850431,-1.1963502,2.772296,9.160077,-1.0175488,-4.786587
354,2026-05-11 16:18:30.036089,1.7850431,-1.1963502,2.772296,9.160077,-1.0175488,-4.786587
355,2026-05-11 16:18:30.039539,1.7850431,-1.1963502,2.772296,9.160077,-1.0175488,-4.786587
356,2026-05-11 16:18:30.042949,1.7850431,-1.1963502,2.772296,9.160077,-1.0175488,-4.786587
357,2026-05-11 16:18:30.045957,1.7850431,-1.1963502,2.772296,9.160077,-1.0175488,-4.786587
358,2026-05-11 16:18:30.048990,1.7850431,-1.1963502,2.772296,9.160077,-1.0175488,-4.786587
359,2026-05-11 16:18:30.051964,1.7850431,-1.1963502,2.772296,9.160077,-1.0175488,-4.786587
360,2026-05-11 16:18:30.055573,1.7850431,-1.1963502,2.772296,9.160077,-1.0175488,-4.786587
361,2026-05-11 16:18:30.058462,1.7850431,-1.1963502,2.772296,9.160077,-1.0175488,-4.786587
362,2026-05-11 16:18:30.061214,1.7850431,-1.1963502,2.772296,9.160077,-1.0175488,-4.786587
363,2026-05-11 16:18:30.063837,1.7850431,-1.1963502,2.772296,9.160077,-1.0175488,-4.786587
364,2026-05-11 16:18:30.066456,1.7850431,-1.1963502,2.772296,9.160077,-1.0175488,-4.786587
365,2026-05-11 16:18:30.069169,1.7850431,-1.1963502,2.772296,9.160077,-1.0175488,-4.786587
366,2026-05-11 16:18:30.072130,1.7850431,-1.1963502,2.772296,9.160077,-1.0175488,-4.786587
367,2026-05-11 16:18:30.074931,1.7850431,-1.1963502,2.772296,9.160077,-1.0175488,-4.786587
368,2026-05-11 16:18:30.077683,1.7940072,-1.2102536,2.6939378,9.227272,-1.0855075,-4.814229
369,2026-05-11 16:18:30.080468,1.7940072,-1.2102536,2.6939378,9.227272,-1.0855075,-4.814229
370,2026-05-11 16:18:30.083239,1.7940072,-1.2102536,2.6939378,9.227272,-1.0855075,-4.814229
371,2026-05-11 16:18:30.085863,1.7940072,-1.2102536,2.6939378,9.227272,-1.0855075,-4.814229
372,2026-05-11 16:18:30.088932,1.7940072,-1.2102536,2.6939378,9.227272,-1.0855075,-4.814229
373,2026-05-11 16:18:30.091660,1.7940072,-1.2102536,2.6939378,9.227272,-1.0855075,-4.814229
374,2026-05-11 16:18:30.094229,1.7940072,-1.2102536,2.6939378,9.227272,-1.0855075,-4.814229
375,2026-05-11 16:18:30.097029,1.7940072,-1.2102536,2.6939378,9.227272,-1.0855075,-4.814229
376,2026-05-11 16:18:30.099679,1.7940072,-1.2102536,2.6939378,9.227272,-1.0855075,-4.814229
377,2026-05-11 16:18:30.102242,1.7940072,-1.2102536,2.6939378,9.227272,-1.0855075,-4.814229
378,2026-05-11 16:18:30.105435,1.7940072,-1.2102536,2.6939378,9.227272,-1.0855075,-4.814229
379,2026-05-11 16:18:30.108123,1.7940072,-1.2102536,2.6939378,9.227272,-1.0855075,-4.814229
380,2026-05-11 16:18:30.110739,1.7940072,-1.2102536,2.6939378,9.227272,-1.0855075,-4.814229
381,2026-05-11 16:18:30.113530,1.7940072,-1.2102536,2.6939378,9.227272,-1.0855075,-4.814229
382,2026-05-11 16:18:30.116177,1.7940072,-1.2102536,2.6939378,9.227272,-1.0855075,-4.814229
383,2026-05-11 16:18:30.118804,1.7940072,-1.2102536,2.6939378,9.227272,-1.0855075,-4.814229
384,2026-05-11 16:18:30.121939,1.4327055,-1.1420178,1.4740494,9.023243,-1.5963436,-5.207168
385,2026-05-11 16:18:30.124877,1.4327055,-1.1420178,1.4740494,9.023243,-1.5963436,-5.207168
386,2026-05-11 16:18:30.127685,1.4327055,-1.1420178,1.4740494,9.023243,-1.5963436,-5.207168
387,2026-05-11 16:18:30.130368,1.4327055,-1.1420178,1.4740494,9.023243,-1.5963436,-5.207168
388,2026-05-11 16:18:30.132954,1.4327055,-1.1420178,1.4740494,9.023243,-1.5963436,-5.207168
389,2026-05-11 16:18:30.135608,1.4327055,-1.1420178,1.4740494,9.023243,-1.5963436,-5.207168
390,2026-05-11 16:18:30.138584,1.4327055,-1.1420178,1.4740494,9.023243,-1.5963436,-5.207168
391,2026-05-11 16:18:30.141375,1.4327055,-1.1420178,1.4740494,9.023243,-1.5963436,-5.207168
392,2026-05-11 16:18:30.143989,1.4327055,-1.1420178,1.4740494,9.023243,-1.5963436,-5.207168
393,2026-05-11 16:18:30.146658,1.4327055,-1.1420178,1.4740494,9.023243,-1.5963436,-5.207168
394,2026-05-11 16:18:30.149217,1.4327055,-1.1420178,1.4740494,9.023243,-1.5963436,-5.207168
395,2026-05-11 16:18:30.151952,1.4327055,-1.1420178,1.4740494,9.023243,-1.5963436,-5.207168
396,2026-05-11 16:18:30.154667,1.4327055,-1.1420178,1.4740494,8.361371,-1.3541355,-5.1827335
397,2026-05-11 16:18:30.157686,1.4327055,-1.1420178,1.4740494,8.361371,-1.3541355,-5.1827335
398,2026-05-11 16:18:30.160283,1.4327055,-1.1420178,1.4740494,8.361371,-1.3541355,-5.1827335
399,2026-05-11 16:18:30.162815,1.4327055,-1.1420178,1.4740494,8.361371,-1.3541355,-5.1827335
400,2026-05-11 16:18:30.165380,1.4327055,-1.1420178,1.4740494,8.361371,-1.3541355,-5.1827335
401,2026-05-11 16:18:30.168177,1.4327055,-1.1420178,1.4740494,8.361371,-1.3541355,-5.1827335
402,2026-05-11 16:18:30.170870,1.4327055,-1.1420178,1.4740494,8.361371,-1.3541355,-5.1827335
403,2026-05-11 16:18:30.173993,1.4327055,-1.1420178,1.4740494,8.361371,-1.3541355,-5.1827335
404,2026-05-11 16:18:30.176592,1.4327055,-1.1420178,1.4740494,8.361371,-1.3541355,-5.1827335
405,2026-05-11 16:18:30.179158,1.4327055,-1.1420178,1.4740494,8.361371,-1.3541355,-5.1827335
406,2026-05-11 16:18:30.181755,1.4327055,-1.1420178,1.4740494,8.361371,-1.3541355,-5.1827335
407,2026-05-11 16:18:30.184303,1.4327055,-1.1420178,1.4740494,8.361371,-1.3541355,-5.1827335
408,2026-05-11 16:18:30.186872,1.4327055,-1.1420178,1.4740494,8.361371,-1.3541355,-5.1827335
409,2026-05-11 16:18:30.189848,1.4327055,-1.1420178,1.4740494,8.361371,-1.3541355,-5.1827335
410,2026-05-11 16:18:30.192529,1.4327055,-1.1420178,1.4740494,8.361371,-1.3541355,-5.1827335
411,2026-05-11 16:18:30.195150,1.4327055,-1.1420178,1.4740494,8.361371,-1.3541355,-5.1827335
412,2026-05-11 16:18:30.197717,1.4327055,-1.1420178,1.4740494,8.361371,-1.3541355,-5.1827335
413,2026-05-11 16:18:30.200422,1.4327055,-1.1420178,1.4740494,8.361371,-1.3541355,-5.1827335
414,2026-05-11 16:18:30.202961,1.4327055,-1.1420178,1.4740494,8.361371,-1.3541355,-5.1827335
415,2026-05-11 16:18:30.206021,1.4327055,-1.1420178,1.4740494,8.361371,-1.3541355,-5.1827335
416,2026-05-11 16:18:30.208784,1.4327055,-1.1420178,1.4740494,8.361371,-1.3541355,-5.1827335
417,2026-05-11 16:18:30.211401,1.4327055,-1.1420178,1.4740494,8.361371,-1.3541355,-5.1827335
418,2026-05-11 16:18:30.214176,1.4327055,-1.1420178,1.4740494,8.361371,-1.3541355,-5.1827335
419,2026-05-11 16:18:30.216865,1.4327055,-1.1420178,1.4740494,8.361371,-1.3541355,-5.1827335
420,2026-05-11 16:18:30.219438,1.4327055,-1.1420178,1.4740494,8.361371,-1.3541355,-5.1827335
421,2026-05-11 16:18:30.222661,1.4327055,-1.1420178,1.4740494,8.361371,-1.3541355,-5.1827335
422,2026-05-11 16:18:30.225527,1.4327055,-1.1420178,1.4740494,8.361371,-1.3541355,-5.1827335
423,2026-05-11 16:18:30.228156,1.4327055,-1.1420178,1.4740494,8.361371,-1.3541355,-5.1827335
424,2026-05-11 16:18:30.230766,1.4327055,-1.1420178,1.4740494,8.361371,-1.3541355,-5.1827335
425,2026-05-11 16:18:30.233600,1.4327055,-1.1420178,1.4740494,8.361371,-1.3541355,-5.1827335
426,2026-05-11 16:18:30.236217,1.4327055,-1.1420178,1.4740494,8.361371,-1.3541355,-5.1827335
427,2026-05-11 16:18:30.239538,1.4327055,-1.1420178,1.4740494,8.361371,-1.3541355,-5.1827335
428,2026-05-11 16:18:30.242267,1.4327055,-1.1420178,1.4740494,8.361371,-1.3541355,-5.1827335
429,2026-05-11 16:18:30.244891,1.4327055,-1.1420178,1.4740494,8.361371,-1.3541355,-5.1827335
430,2026-05-11 16:18:30.247463,1.4327055,-1.1420178,1.4740494,8.361371,-1.3541355,-5.1827335
431,2026-05-11 16:18:30.249966,1.4327055,-1.1420178,1.4740494,8.361371,-1.3541355,-5.1827335
432,2026-05-11 16:18:30.252692,1.4327055,-1.1420178,1.4740494,8.361371,-1.3541355,-5.1827335
433,2026-05-11 16:18:30.255579,1.4327055,-1.1420178,1.4740494,8.361371,-1.3541355,-5.1827335
434,2026-05-11 16:18:30.258317,1.4327055,-1.1420178,1.4740494,8.361371,-1.3541355,-5.1827335
435,2026-05-11 16:18:30.260899,1.4327055,-1.1420178,1.4740494,8.361371,-1.3541355,-5.1827335
436,2026-05-11 16:18:30.263504,1.4327055,-1.1420178,1.4740494,8.361371,-1.3541355,-5.1827335
437,2026-05-11 16:18:30.266124,1.4327055,-1.1420178,1.4740494,8.361371,-1.3541355,-5.1827335
438,2026-05-11 16:18:30.268636,1.4327055,-1.1420178,1.4740494,8.361371,-1.3541355,-5.1827335
439,2026-05-11 16:18:30.271493,1.4327055,-1.1420178,1.4740494,8.361371,-1.3541355,-5.1827335
440,2026-05-11 16:18:30.274250,1.4327055,-1.1420178,1.4740494,8.361371,-1.3541355,-5.1827335
441,2026-05-11 16:18:30.276866,1.4327055,-1.1420178,1.4740494,8.361371,-1.3541355,-5.1827335
442,2026-05-11 16:18:30.279639,1.4327055,-1.1420178,1.4740494,8.361371,-1.3541355,-5.1827335
443,2026-05-11 16:18:30.282189,1.4327055,-1.1420178,1.4740494,8.361371,-1.3541355,-5.1827335
444,2026-05-11 16:18:30.304752,1.483867,-0.9906676,1.0598788,6.0741386,-1.0273226,-5.5385623
445,2026-05-11 16:18:30.308398,1.483867,-0.9906676,1.0598788,6.0741386,-1.0273226,-5.5385623
446,2026-05-11 16:18:30.312498,1.483867,-0.9906676,1.0598788,6.0741386,-1.0273226,-5.5385623
447,2026-05-11 16:18:30.319505,1.483867,-0.9906676,1.0598788,6.0741386,-1.0273226,-5.5385623
448,2026-05-11 16:18:30.325115,1.483867,-0.9906676,1.0598788,6.0741386,-1.0273226,-5.5385623
449,2026-05-11 16:18:30.327947,1.483867,-0.9906676,1.0598788,6.0741386,-1.0273226,-5.5385623
450,2026-05-11 16:18:30.330599,1.483867,-0.9906676,1.0598788,6.0741386,-1.0273226,-5.5385623
451,2026-05-11 16:18:30.333452,1.3055639,-1.0419511,1.1437253,6.0741386,-1.0273226,-5.5385623
452,2026-05-11 16:18:30.336032,1.3055639,-1.0419511,1.1437253,6.0741386,-1.0273226,-5.5385623
453,2026-05-11 16:18:30.339302,1.3055639,-1.0419511,1.1437253,6.0741386,-1.0273226,-5.5385623
454,2026-05-11 16:18:30.342205,1.150433,-1.1219556,1.1647631,5.9308906,-1.4824172,-5.660125
455,2026-05-11 16:18:30.344919,1.150433,-1.1219556,1.1647631,5.9308906,-1.4824172,-5.660125
456,2026-05-11 16:18:30.347534,1.150433,-1.1219556,1.1647631,5.9308906,-1.4824172,-5.660125
457,2026-05-11 16:18:30.350316,1.150433,-1.1219556,1.1647631,5.9308906,-1.4824172,-5.660125
458,2026-05-11 16:18:30.352872,1.150433,-1.1219556,1.1647631,5.9308906,-1.4824172,-5.660125
459,2026-05-11 16:18:30.356152,1.150433,-1.1219556,1.1647631,5.9308906,-1.4824172,-5.660125
460,2026-05-11 16:18:30.358970,1.150433,-1.1219556,1.1647631,5.9308906,-1.4824172,-5.660125
461,2026-05-11 16:18:30.361693,1.150433,-1.1219556,1.1647631,5.9308906,-1.4824172,-5.660125
462,2026-05-11 16:18:30.364285,1.150433,-1.1219556,1.1647631,5.9308906,-1.4824172,-5.660125
463,2026-05-11 16:18:30.367084,1.150433,-1.1219556,1.1647631,5.9308906,-1.4824172,-5.660125
464,2026-05-11 16:18:30.369723,1.150433,-1.1219556,1.1647631,5.9308906,-1.4824172,-5.660125
465,2026-05-11 16:18:30.372730,1.150433,-1.1219556,1.1647631,5.9308906,-1.4824172,-5.660125
466,2026-05-11 16:18:30.375452,1.150433,-1.1219556,1.1647631,5.9308906,-1.4824172,-5.660125
467,2026-05-11 16:18:30.378021,1.150433,-1.1219556,1.1647631,5.9308906,-1.4824172,-5.660125
468,2026-05-11 16:18:30.380607,1.150433,-1.1219556,1.1647631,5.9308906,-1.4824172,-5.660125
469,2026-05-11 16:18:30.383342,1.150433,-1.1219556,1.1647631,5.9308906,-1.4824172,-5.660125
470,2026-05-11 16:18:30.385946,1.150433,-1.1219556,1.1647631,5.9308906,-1.4824172,-5.660125
471,2026-05-11 16:18:30.388885,1.150433,-1.1219556,1.1647631,5.9308906,-1.4824172,-5.660125
472,2026-05-11 16:18:30.391770,1.150433,-1.1219556,1.1647631,5.9504385,-1.8781052,-5.6908207
473,2026-05-11 16:18:30.394393,1.150433,-1.1219556,1.1647631,5.9504385,-1.8781052,-5.6908207
474,2026-05-11 16:18:30.396988,1.150433,-1.1219556,1.1647631,5.9504385,-1.8781052,-5.6908207
475,2026-05-11 16:18:30.399752,1.150433,-1.1219556,1.1647631,5.9504385,-1.8781052,-5.6908207
476,2026-05-11 16:18:30.402317,1.150433,-1.1219556,1.1647631,5.9504385,-1.8781052,-5.6908207
477,2026-05-11 16:18:30.405439,1.150433,-1.1219556,1.1647631,5.9504385,-1.8781052,-5.6908207
478,2026-05-11 16:18:30.408375,1.150433,-1.1219556,1.1647631,5.9504385,-1.8781052,-5.6908207
479,2026-05-11 16:18:30.411112,1.150433,-1.1219556,1.1647631,5.9504385,-1.8781052,-5.6908207
480,2026-05-11 16:18:30.413783,1.150433,-1.1219556,1.1647631,5.9504385,-1.8781052,-5.6908207
481,2026-05-11 16:18:30.416487,1.150433,-1.1219556,1.1647631,5.9504385,-1.8781052,-5.6908207
482,2026-05-11 16:18:30.419057,1.150433,-1.1219556,1.1647631,5.9504385,-1.8781052,-5.6908207
483,2026-05-11 16:18:30.422177,1.150433,-1.1219556,1.1647631,5.9504385,-1.8781052,-5.6908207
484,2026-05-11 16:18:30.424911,1.150433,-1.1219556,1.1647631,5.9504385,-1.8781052,-5.6908207
485,2026-05-11 16:18:30.427497,1.150433,-1.1219556,1.1647631,5.9504385,-1.8781052,-5.6908207
486,2026-05-11 16:18:30.430187,1.150433,-1.1219556,1.1647631,5.9504385,-1.8781052,-5.6908207
487,2026-05-11 16:18:30.432754,1.150433,-1.1219556,1.1647631,5.9504385,-1.8781052,-5.6908207
488,2026-05-11 16:18:30.435404,1.150433,-1.1219556,1.1647631,5.9504385,-1.8781052,-5.6908207
489,2026-05-11 16:18:30.438336,1.150433,-1.1219556,1.1647631,6.046497,-2.1730003,-5.6549325
490,2026-05-11 16:18:30.441292,1.150433,-1.1219556,1.1647631,6.046497,-2.1730003,-5.6549325
491,2026-05-11 16:18:30.444066,1.150433,-1.1219556,1.1647631,6.046497,-2.1730003,-5.6549325
492,2026-05-11 16:18:30.446781,1.150433,-1.1219556,1.1647631,6.046497,-2.1730003,-5.6549325
493,2026-05-11 16:18:30.449405,1.150433,-1.1219556,1.1647631,6.046497,-2.1730003,-5.6549325
494,2026-05-11 16:18:30.452017,1.150433,-1.1219556,1.1647631,6.046497,-2.1730003,-5.6549325
495,2026-05-11 16:18:30.454935,0.9142607,-1.1993992,0.9509091,6.0562706,-2.2974641,-5.625611
496,2026-05-11 16:18:30.457836,0.9142607,-1.1993992,0.9509091,6.0562706,-2.2974641,-5.625611
497,2026-05-11 16:18:30.460594,0.9142607,-1.1993992,0.9509091,6.0562706,-2.2974641,-5.625611
498,2026-05-11 16:18:30.463392,0.9142607,-1.1993992,0.9509091,6.0562706,-2.2974641,-5.625611
499,2026-05-11 16:18:30.466066,0.9142607,-1.1993992,0.9509091,6.0562706,-2.2974641,-5.625611
500,2026-05-11 16:18:30.468664,0.9142607,-1.1993992,0.9509091,6.0562706,-2.2974641,-5.625611
501,2026-05-11 16:18:30.471774,0.9142607,-1.1993992,0.9509091,6.0562706,-2.2974641,-5.625611
502,2026-05-11 16:18:30.474770,0.9142607,-1.1993992,0.9509091,6.0562706,-2.2974641,-5.625611
503,2026-05-11 16:18:30.477529,0.9142607,-1.1993992,0.9509091,6.0562706,-2.2974641,-5.625611
504,2026-05-11 16:18:30.480190,0.9142607,-1.1993992,0.9509091,6.0562706,-2.2974641,-5.625611
505,2026-05-11 16:18:30.482933,0.9142607,-1.1993992,0.9509091,6.0562706,-2.2974641,-5.625611
506,2026-05-11 16:18:30.485678,0.9142607,-1.1993992,0.9509091,5.730832,-2.2563834,-5.4730473
507,2026-05-11 16:18:30.488607,0.9142607,-1.1993992,0.9509091,5.730832,-2.2563834,-5.4730473
508,2026-05-11 16:18:30.491498,0.9142607,-1.1993992,0.9509091,5.730832,-2.2563834,-5.4730473
509,2026-05-11 16:18:30.494098,0.9142607,-1.1993992,0.9509091,5.730832,-2.2563834,-5.4730473
510,2026-05-11 16:18:30.496693,0.9142607,-1.1993992,0.9509091,5.730832,-2.2563834,-5.4730473
511,2026-05-11 16:18:30.499255,0.9142607,-1.1993992,0.9509091,5.730832,-2.2563834,-5.4730473
512,2026-05-11 16:18:30.501833,0.9142607,-1.1993992,0.9509091,5.730832,-2.2563834,-5.4730473
513,2026-05-11 16:18:30.504727,0.9142607,-1.1993992,0.9509091,5.730832,-2.2563834,-5.4730473
514,2026-05-11 16:18:30.507843,0.9142607,-1.1993992,0.9509091,5.730832,-2.2563834,-5.4730473
515,2026-05-11 16:18:30.510554,0.9142607,-1.1993992,0.9509091,5.730832,-2.2563834,-5.4730473
516,2026-05-11 16:18:30.513167,0.9142607,-1.1993992,0.9509091,5.730832,-2.2563834,-5.4730473
517,2026-05-11 16:18:30.516067,0.6952235,-1.1745807,0.5050904,5.730832,-2.2563834,-5.4730473
518,2026-05-11 16:18:30.518845,0.6959552,-1.0971981,0.37581462,4.493372,-1.4535538,-5.1413474
519,2026-05-11 16:18:30.522095,0.6959552,-1.0971981,0.37581462,4.493372,-1.4535538,-5.1413474
520,2026-05-11 16:18:30.524971,0.6959552,-1.0971981,0.37581462,4.493372,-1.4535538,-5.1413474
521,2026-05-11 16:18:30.527618,0.6959552,-1.0971981,0.37581462,4.493372,-1.4535538,-5.1413474
522,2026-05-11 16:18:30.530321,0.6959552,-1.0971981,0.37581462,4.493372,-1.4535538,-5.1413474
523,2026-05-11 16:18:30.533042,0.6959552,-1.0971981,0.37581462,4.493372,-1.4535538,-5.1413474
524,2026-05-11 16:18:30.535702,0.6959552,-1.0971981,0.37581462,4.493372,-1.4535538,-5.1413474
525,2026-05-11 16:18:30.538838,0.6959552,-1.0971981,0.37581462,4.493372,-1.4535538,-5.1413474
526,2026-05-11 16:18:30.541594,0.6959552,-1.0971981,0.37581462,4.493372,-1.4535538,-5.1413474
527,2026-05-11 16:18:30.544195,0.6959552,-1.0971981,0.37581462,4.493372,-1.4535538,-5.1413474
528,2026-05-11 16:18:30.546999,0.6959552,-1.0971981,0.37581462,4.493372,-1.4535538,-5.1413474
529,2026-05-11 16:18:30.549844,0.6959552,-1.0971981,0.37581462,3.6774087,-0.81000733,-5.0466633
530,2026-05-11 16:18:30.552482,0.6959552,-1.0971981,0.37581462,3.6774087,-0.81000733,-5.0466633
531,2026-05-11 16:18:30.555397,0.6959552,-1.0971981,0.37581462,3.6774087,-0.81000733,-5.0466633
532,2026-05-11 16:18:30.558426,0.5998521,-1.0580496,0.35020337,3.6774087,-0.81000733,-5.0466633
533,2026-05-11 16:18:30.561126,0.5998521,-1.0580496,0.35020337,3.349374,-0.5152648,-5.012455
534,2026-05-11 16:18:30.563989,0.5998521,-1.0580496,0.35020337,3.349374,-0.5152648,-5.012455
535,2026-05-11 16:18:30.566729,0.5998521,-1.0580496,0.35020337,3.349374,-0.5152648,-5.012455
536,2026-05-11 16:18:30.569334,0.5998521,-1.0580496,0.35020337,3.349374,-0.5152648,-5.012455
537,2026-05-11 16:18:30.572532,0.5998521,-1.0580496,0.35020337,3.349374,-0.5152648,-5.012455
538,2026-05-11 16:18:30.575363,0.5998521,-1.0580496,0.35020337,3.349374,-0.5152648,-5.012455
539,2026-05-11 16:18:30.578097,0.5998521,-1.0580496,0.35020337,3.349374,-0.5152648,-5.012455
540,2026-05-11 16:18:30.580705,0.5998521,-1.0580496,0.35020337,3.349374,-0.5152648,-5.012455
541,2026-05-11 16:18:30.583494,0.5998521,-1.0580496,0.35020337,3.349374,-0.5152648,-5.012455
542,2026-05-11 16:18:30.586101,0.5998521,-1.0580496,0.35020337,3.349374,-0.5152648,-5.012455
543,2026-05-11 16:18:30.589218,0.5998521,-1.0580496,0.35020337,3.349374,-0.5152648,-5.012455
544,2026-05-11 16:18:30.591981,0.5998521,-1.0580496,0.35020337,3.349374,-0.5152648,-5.012455
545,2026-05-11 16:18:30.594597,0.5998521,-1.0580496,0.35020337,3.349374,-0.5152648,-5.012455
546,2026-05-11 16:18:30.597362,0.5998521,-1.0580496,0.35020337,3.349374,-0.5152648,-5.012455
547,2026-05-11 16:18:30.599999,0.5998521,-1.0580496,0.35020337,3.349374,-0.5152648,-5.012455
548,2026-05-11 16:18:30.602776,0.5998521,-1.0580496,0.35020337,3.349374,-0.5152648,-5.012455
549,2026-05-11 16:18:30.605802,0.5998521,-1.0580496,0.35020337,3.349374,-0.5152648,-5.012455
550,2026-05-11 16:18:30.608565,0.5998521,-1.0580496,0.35020337,3.349374,-0.5152648,-5.012455
551,2026-05-11 16:18:30.611159,0.5998521,-1.0580496,0.35020337,3.349374,-0.5152648,-5.012455
552,2026-05-11 16:18:30.613858,0.5998521,-1.0580496,0.35020337,3.349374,-0.5152648,-5.012455
553,2026-05-11 16:18:30.616442,0.5998521,-1.0580496,0.35020337,3.349374,-0.5152648,-5.012455
554,2026-05-11 16:18:30.619005,0.5998521,-1.0580496,0.35020337,3.349374,-0.5152648,-5.012455
555,2026-05-11 16:18:30.621900,0.5998521,-1.0580496,0.35020337,3.349374,-0.5152648,-5.012455
556,2026-05-11 16:18:30.624627,0.5998521,-1.0580496,0.35020337,3.349374,-0.5152648,-5.012455
557,2026-05-11 16:18:30.627218,0.5998521,-1.0580496,0.35020337,3.349374,-0.5152648,-5.012455
558,2026-05-11 16:18:30.629800,0.5998521,-1.0580496,0.35020337,3.349374,-0.5152648,-5.012455
559,2026-05-11 16:18:30.632342,0.5998521,-1.0580496,0.35020337,3.349374,-0.5152648,-5.012455
560,2026-05-11 16:18:30.634899,0.5998521,-1.0580496,0.35020337,3.349374,-0.5152648,-5.012455
561,2026-05-11 16:18:30.637790,0.5998521,-1.0580496,0.35020337,3.349374,-0.5152648,-5.012455
562,2026-05-11 16:18:30.640804,0.4744789,-1.1045157,0.34227607,3.349374,-0.5152648,-5.012455
563,2026-05-11 16:18:30.643512,0.4744789,-1.1045157,0.34227607,3.349374,-0.5152648,-5.012455
564,2026-05-11 16:18:30.646163,0.4744789,-1.1045157,0.34227607,3.349374,-0.5152648,-5.012455
565,2026-05-11 16:18:30.648782,0.4744789,-1.1045157,0.34227607,2.903137,-0.0421497,-4.9800787
566,2026-05-11 16:18:30.651578,0.4744789,-1.1045157,0.34227607,2.903137,-0.0421497,-4.9800787
567,2026-05-11 16:18:30.654415,0.4744789,-1.1045157,0.34227607,2.903137,-0.0421497,-4.9800787
568,2026-05-11 16:18:30.657489,0.4744789,-1.1045157,0.34227607,2.903137,-0.0421497,-4.9800787
569,2026-05-11 16:18:30.660420,0.4744789,-1.1045157,0.34227607,2.903137,-0.0421497,-4.9800787
570,2026-05-11 16:18:30.663085,0.4744789,-1.1045157,0.34227607,2.903137,-0.0421497,-4.9800787
571,2026-05-11 16:18:30.665686,0.4744789,-1.1045157,0.34227607,2.903137,-0.0421497,-4.9800787
572,2026-05-11 16:18:30.668415,0.4744789,-1.1045157,0.34227607,2.903137,-0.0421497,-4.9800787
573,2026-05-11 16:18:30.671413,0.4744789,-1.1045157,0.34227607,2.903137,-0.0421497,-4.9800787
574,2026-05-11 16:18:30.674408,0.4744789,-1.1045157,0.34227607,2.903137,-0.0421497,-4.9800787
575,2026-05-11 16:18:30.677012,0.4744789,-1.1045157,0.34227607,2.903137,-0.0421497,-4.9800787
576,2026-05-11 16:18:30.679916,0.3702045,-1.1500671,0.2920902,2.903137,-0.0421497,-4.9800787
577,2026-05-11 16:18:30.682679,0.3702045,-1.1500671,0.2920902,2.903137,-0.0421497,-4.9800787
578,2026-05-11 16:18:30.685324,0.3702045,-1.1500671,0.2920902,2.903137,-0.0421497,-4.9800787
579,2026-05-11 16:18:30.688110,0.3702045,-1.1500671,0.2920902,2.903137,-0.0421497,-4.9800787
580,2026-05-11 16:18:30.691135,0.3702045,-1.1500671,0.2920902,2.903137,-0.0421497,-4.9800787
581,2026-05-11 16:18:30.693753,0.3702045,-1.1500671,0.2920902,2.903137,-0.0421497,-4.9800787
582,2026-05-11 16:18:30.696418,0.3702045,-1.1500671,0.2920902,2.903137,-0.0421497,-4.9800787
583,2026-05-11 16:18:30.699047,0.3702045,-1.1500671,0.2920902,2.903137,-0.0421497,-4.9800787
584,2026-05-11 16:18:30.701717,0.3702045,-1.1500671,0.2920902,2.7612636,0.16233744,-4.969236
585,2026-05-11 16:18:30.704357,0.3702045,-1.1500671,0.2920902,2.7612636,0.16233744,-4.969236
586,2026-05-11 16:18:30.707659,0.3702045,-1.1500671,0.2920902,2.7612636,0.16233744,-4.969236
587,2026-05-11 16:18:30.710544,0.3702045,-1.1500671,0.2920902,2.7612636,0.16233744,-4.969236
588,2026-05-11 16:18:30.713195,0.3702045,-1.1500671,0.2920902,2.7612636,0.16233744,-4.969236
589,2026-05-11 16:18:30.715882,0.3702045,-1.1500671,0.2920902,2.7612636,0.16233744,-4.969236
590,2026-05-11 16:18:30.718514,0.3702045,-1.1500671,0.2920902,2.7612636,0.16233744,-4.969236
591,2026-05-11 16:18:30.721425,0.3702045,-1.1500671,0.2920902,2.7612636,0.16233744,-4.969236
592,2026-05-11 16:18:30.724846,0.3702045,-1.1500671,0.2920902,2.7612636,0.16233744,-4.969236
593,2026-05-11 16:18:30.727688,0.3702045,-1.1500671,0.2920902,2.7612636,0.16233744,-4.969236
594,2026-05-11 16:18:30.730389,-0.13677627,-1.5171617,-0.067321,2.673299,0.35338554,-4.9732065
595,2026-05-11 16:18:30.732979,-0.13677627,-1.5171617,-0.067321,2.673299,0.35338554,-4.9732065
596,2026-05-11 16:18:30.735800,-0.13677627,-1.5171617,-0.067321,2.673299,0.35338554,-4.9732065
597,2026-05-11 16:18:30.738709,-0.13677627,-1.5171617,-0.067321,2.673299,0.35338554,-4.9732065
598,2026-05-11 16:18:30.741634,-0.13677627,-1.5171617,-0.067321,2.673299,0.35338554,-4.9732065
599,2026-05-11 16:18:30.744376,-0.13677627,-1.5171617,-0.067321,2.673299,0.35338554,-4.9732065
600,2026-05-11 16:18:30.747016,-0.13677627,-1.5171617,-0.067321,2.673299,0.35338554,-4.9732065
601,2026-05-11 16:18:30.749604,-0.13677627,-1.5171617,-0.067321,2.673299,0.35338554,-4.9732065
602,2026-05-11 16:18:30.752418,-0.13677627,-1.5171617,-0.067321,2.673299,0.35338554,-4.9732065
603,2026-05-11 16:18:30.755316,-0.13677627,-1.5171617,-0.067321,2.673299,0.35338554,-4.9732065
604,2026-05-11 16:18:30.758222,-0.13677627,-1.5171617,-0.067321,2.673299,0.35338554,-4.9732065
605,2026-05-11 16:18:30.760815,-0.13677627,-1.5171617,-0.067321,2.673299,0.35338554,-4.9732065
606,2026-05-11 16:18:30.763654,-0.13677627,-1.5171617,-0.067321,2.673299,0.35338554,-4.9732065
607,2026-05-11 16:18:30.766366,-0.13677627,-1.5171617,-0.067321,2.673299,0.35338554,-4.9732065
608,2026-05-11 16:18:30.769140,-0.13677627,-1.5171617,-0.067321,2.673299,0.35338554,-4.9732065
609,2026-05-11 16:18:30.771962,-0.13677627,-1.5171617,-0.067321,2.673299,0.35338554,-4.9732065
610,2026-05-11 16:18:30.774766,-0.13677627,-1.5171617,-0.067321,2.673757,0.40515637,-4.90311
611,2026-05-11 16:18:30.777529,-0.13677627,-1.5171617,-0.067321,2.673757,0.40515637,-4.90311
612,2026-05-11 16:18:30.780165,-0.13677627,-1.5171617,-0.067321,2.673757,0.40515637,-4.90311
613,2026-05-11 16:18:30.782789,-0.13677627,-1.5171617,-0.067321,2.673757,0.40515637,-4.90311
614,2026-05-11 16:18:30.785380,-0.13677627,-1.5171617,-0.067321,2.673757,0.40515637,-4.90311
615,2026-05-11 16:18:30.788557,-0.13677627,-1.5171617,-0.067321,2.673757,0.40515637,-4.90311
616,2026-05-11 16:18:30.791418,-0.13677627,-1.5171617,-0.067321,2.7458394,0.28619036,-4.8177414
617,2026-05-11 16:18:30.794285,-0.13677627,-1.5171617,-0.067321,2.7458394,0.28619036,-4.8177414
618,2026-05-11 16:18:30.797028,-0.13677627,-1.5171617,-0.067321,2.7458394,0.28619036,-4.8177414
619,2026-05-11 16:18:30.799726,-0.13677627,-1.5171617,-0.067321,2.7458394,0.28619036,-4.8177414
620,2026-05-11 16:18:30.802486,-0.13677627,-1.5171617,-0.067321,2.7458394,0.28619036,-4.8177414
621,2026-05-11 16:18:30.805785,-0.13677627,-1.5171617,-0.067321,2.7458394,0.28619036,-4.8177414
622,2026-05-11 16:18:30.808645,-0.13677627,-1.5171617,-0.067321,2.7458394,0.28619036,-4.8177414
623,2026-05-11 16:18:30.811419,-0.13677627,-1.5171617,-0.067321,2.7458394,0.28619036,-4.8177414
624,2026-05-11 16:18:30.814302,-0.13677627,-1.5171617,-0.067321,2.7458394,0.28619036,-4.8177414
625,2026-05-11 16:18:30.816983,-0.13677627,-1.5171617,-0.067321,2.7458394,0.28619036,-4.8177414
626,2026-05-11 16:18:30.819607,-0.13677627,-1.5171617,-0.067321,2.7458394,0.28619036,-4.8177414
627,2026-05-11 16:18:30.823160,-0.13677627,-1.5171617,-0.067321,2.7458394,0.28619036,-4.8177414
628,2026-05-11 16:18:30.826041,-0.13677627,-1.5171617,-0.067321,2.7458394,0.28619036,-4.8177414
629,2026-05-11 16:18:30.828654,-0.13677627,-1.5171617,-0.067321,2.7458394,0.28619036,-4.8177414
630,2026-05-11 16:18:30.831291,-0.13677627,-1.5171617,-0.067321,2.7458394,0.28619036,-4.8177414
631,2026-05-11 16:18:30.834013,-0.13677627,-1.5171617,-0.067321,2.7458394,0.28619036,-4.8177414
632,2026-05-11 16:18:30.836604,-0.13677627,-1.5171617,-0.067321,2.7458394,0.28619036,-4.8177414
633,2026-05-11 16:18:30.839954,-0.13677627,-1.5171617,-0.067321,2.7458394,0.28619036,-4.8177414
634,2026-05-11 16:18:30.842765,-0.13677627,-1.5171617,-0.067321,2.7458394,0.28619036,-4.8177414
635,2026-05-11 16:18:30.845385,-0.13677627,-1.5171617,-0.067321,2.7458394,0.28619036,-4.8177414
636,2026-05-11 16:18:30.848056,-0.13677627,-1.5171617,-0.067321,2.7458394,0.28619036,-4.8177414
637,2026-05-11 16:18:30.850785,-0.13677627,-1.5171617,-0.067321,2.7458394,0.28619036,-4.8177414
638,2026-05-11 16:18:30.853360,-0.13677627,-1.5171617,-0.067321,2.7458394,0.28619036,-4.8177414
639,2026-05-11 16:18:30.856700,-0.13677627,-1.5171617,-0.067321,2.7458394,0.28619036,-4.8177414
640,2026-05-11 16:18:30.859722,-0.13677627,-1.5171617,-0.067321,2.7458394,0.28619036,-4.8177414
641,2026-05-11 16:18:30.862364,-0.13677627,-1.5171617,-0.067321,2.7458394,0.28619036,-4.8177414
642,2026-05-11 16:18:30.865096,-0.13677627,-1.5171617,-0.067321,2.7458394,0.28619036,-4.8177414
643,2026-05-11 16:18:30.867884,-0.13677627,-1.5171617,-0.067321,2.7458394,0.28619036,-4.8177414
644,2026-05-11 16:18:30.870492,-0.13677627,-1.5171617,-0.067321,2.7458394,0.28619036,-4.8177414
645,2026-05-11 16:18:30.874103,-0.40093803,-1.6291804,-0.19037697,2.7458394,0.28619036,-4.8177414
646,2026-05-11 16:18:30.877074,-0.40093803,-1.6291804,-0.19037697,2.7458394,0.28619036,-4.8177414
647,2026-05-11 16:18:30.879748,-0.40093803,-1.6291804,-0.19037697,2.7458394,0.28619036,-4.8177414
648,2026-05-11 16:18:30.882499,-0.40093803,-1.6291804,-0.19037697,2.7458394,0.28619036,-4.8177414
649,2026-05-11 16:18:30.885245,-1.337761,-2.0387166,-0.55984974,3.4547484,-1.3755158,-4.036903
650,2026-05-11 16:18:30.888381,-1.337761,-2.0387166,-0.55984974,3.4547484,-1.3755158,-4.036903
651,2026-05-11 16:18:30.891234,-1.337761,-2.0387166,-0.55984974,3.4547484,-1.3755158,-4.036903
652,2026-05-11 16:18:30.894034,-1.337761,-2.0387166,-0.55984974,3.4547484,-1.3755158,-4.036903
653,2026-05-11 16:18:30.896875,-1.337761,-2.0387166,-0.55984974,3.7971385,-2.1691825,-3.5446982
654,2026-05-11 16:18:30.899820,-1.697721,-2.2765353,-0.77224016,3.9461894,-2.6215281,-3.0498974
655,2026-05-11 16:18:30.902536,-1.697721,-2.2765353,-0.77224016,3.9461894,-2.6215281,-3.0498974
656,2026-05-11 16:18:30.905953,-1.697721,-2.2765353,-0.77224016,3.9461894,-2.6215281,-3.0498974
657,2026-05-11 16:18:30.908824,-1.697721,-2.2765353,-0.77224016,3.9461894,-2.6215281,-3.0498974
658,2026-05-11 16:18:30.911477,-1.697721,-2.2765353,-0.77224016,3.9461894,-2.6215281,-3.0498974
659,2026-05-11 16:18:30.914177,-1.697721,-2.2765353,-0.77224016,3.9461894,-2.6215281,-3.0498974
660,2026-05-11 16:18:30.917042,-1.697721,-2.2765353,-0.77224016,3.9461894,-2.6215281,-3.0498974
661,2026-05-11 16:18:30.919677,-1.697721,-2.2765353,-0.77224016,3.9461894,-2.6215281,-3.0498974
662,2026-05-11 16:18:30.923177,-1.697721,-2.2765353,-0.77224016,3.9461894,-2.6215281,-3.0498974
663,2026-05-11 16:18:30.925916,-1.697721,-2.2765353,-0.77224016,3.9461894,-2.6215281,-3.0498974
664,2026-05-11 16:18:30.928637,-1.697721,-2.2765353,-0.77224016,3.9461894,-2.6215281,-3.0498974
665,2026-05-11 16:18:30.931253,-1.697721,-2.2765353,-0.77224016,3.9461894,-2.6215281,-3.0498974
666,2026-05-11 16:18:30.933958,-1.697721,-2.2765353,-0.77224016,3.9461894,-2.6215281,-3.0498974
667,2026-05-11 16:18:30.936734,-1.697721,-2.2765353,-0.77224016,3.9461894,-2.6215281,-3.0498974
668,2026-05-11 16:18:30.940185,-1.697721,-2.2765353,-0.77224016,3.9461894,-2.6215281,-3.0498974
669,2026-05-11 16:18:30.943066,-1.697721,-2.2765353,-0.77224016,3.9461894,-2.6215281,-3.0498974
670,2026-05-11 16:18:30.945884,-1.8690724,-2.3791633,-0.9528605,3.9461894,-2.6215281,-3.0498974
671,2026-05-11 16:18:30.948804,-1.8690724,-2.3791633,-0.9528605,3.7669005,-2.6451993,-2.593123
672,2026-05-11 16:18:30.951503,-1.8690724,-2.3791633,-0.9528605,3.7669005,-2.6451993,-2.593123
673,2026-05-11 16:18:30.954570,-1.8690724,-2.3791633,-0.9528605,3.195436,-2.312125,-1.8570304
674,2026-05-11 16:18:30.957764,-1.8690724,-2.3791633,-0.9528605,3.195436,-2.312125,-1.8570304
675,2026-05-11 16:18:30.960554,-1.8690724,-2.3791633,-0.9528605,3.195436,-2.312125,-1.8570304
676,2026-05-11 16:18:30.963210,-1.8690724,-2.3791633,-0.9528605,3.195436,-2.312125,-1.8570304
677,2026-05-11 16:18:30.966113,-1.8690724,-2.3791633,-0.9528605,3.195436,-2.312125,-1.8570304
678,2026-05-11 16:18:30.968873,-1.8690724,-2.3791633,-0.9528605,3.195436,-2.312125,-1.8570304
679,2026-05-11 16:18:30.972260,-1.8690724,-2.3791633,-0.9528605,3.195436,-2.312125,-1.8570304
680,2026-05-11 16:18:30.975172,-1.8690724,-2.3791633,-0.9528605,3.195436,-2.312125,-1.8570304
681,2026-05-11 16:18:30.977858,-1.8690724,-2.3791633,-0.9528605,3.195436,-2.312125,-1.8570304
682,2026-05-11 16:18:30.980662,-1.8690724,-2.3791633,-0.9528605,3.195436,-2.312125,-1.8570304
683,2026-05-11 16:18:30.983307,-1.8690724,-2.3791633,-0.9528605,3.195436,-2.312125,-1.8570304
684,2026-05-11 16:18:30.986135,-1.8690724,-2.3791633,-0.9528605,3.195436,-2.312125,-1.8570304
685,2026-05-11 16:18:30.989404,-1.8690724,-2.3791633,-0.9528605,3.195436,-2.312125,-1.8570304
686,2026-05-11 16:18:30.992434,-1.8690724,-2.3791633,-0.9528605,3.195436,-2.312125,-1.8570304
687,2026-05-11 16:18:30.995220,-1.8690724,-2.3791633,-0.9528605,3.195436,-2.312125,-1.8570304
688,2026-05-11 16:18:30.997934,-1.8690724,-2.3791633,-0.9528605,3.195436,-2.312125,-1.8570304
689,2026-05-11 16:18:31.000732,-1.8690724,-2.3791633,-0.9528605,3.195436,-2.312125,-1.8570304
690,2026-05-11 16:18:31.003839,-2.1059763,-2.385932,-1.0404875,3.195436,-2.312125,-1.8570304
691,2026-05-11 16:18:31.007005,-2.1059763,-2.385932,-1.0404875,3.195436,-2.312125,-1.8570304
692,2026-05-11 16:18:31.009648,-2.1059763,-2.385932,-1.0404875,3.195436,-2.312125,-1.8570304
693,2026-05-11 16:18:31.012563,-2.1059763,-2.385932,-1.0404875,3.195436,-2.312125,-1.8570304
694,2026-05-11 16:18:31.015152,-2.1059763,-2.385932,-1.0404875,3.195436,-2.312125,-1.8570304
695,2026-05-11 16:18:31.017881,-2.1059763,-2.385932,-1.0404875,3.195436,-2.312125,-1.8570304
696,2026-05-11 16:18:31.020422,-2.1059763,-2.385932,-1.0404875,3.195436,-2.312125,-1.8570304
697,2026-05-11 16:18:31.023381,-2.1059763,-2.385932,-1.0404875,3.195436,-2.312125,-1.8570304
698,2026-05-11 16:18:31.026044,-2.1059763,-2.385932,-1.0404875,3.195436,-2.312125,-1.8570304
699,2026-05-11 16:18:31.028589,-2.1059763,-2.385932,-1.0404875,3.195436,-2.312125,-1.8570304
700,2026-05-11 16:18:31.031118,-2.1059763,-2.385932,-1.0404875,3.195436,-2.312125,-1.8570304
701,2026-05-11 16:18:31.033697,-2.1059763,-2.385932,-1.0404875,3.195436,-2.312125,-1.8570304
702,2026-05-11 16:18:31.036359,-2.1059763,-2.385932,-1.0404875,3.195436,-2.312125,-1.8570304
703,2026-05-11 16:18:31.039212,-2.1059763,-2.385932,-1.0404875,3.195436,-2.312125,-1.8570304
704,2026-05-11 16:18:31.041928,-2.1059763,-2.385932,-1.0404875,3.195436,-2.312125,-1.8570304
705,2026-05-11 16:18:31.044624,-2.1059763,-2.385932,-1.0404875,3.195436,-2.312125,-1.8570304
706,2026-05-11 16:18:31.047208,-2.1059763,-2.385932,-1.0404875,3.195436,-2.312125,-1.8570304
707,2026-05-11 16:18:31.049865,-2.1059763,-2.385932,-1.0404875,3.195436,-2.312125,-1.8570304
708,2026-05-11 16:18:31.052483,-2.1059763,-2.385932,-1.0404875,3.195436,-2.312125,-1.8570304
709,2026-05-11 16:18:31.055482,-2.1059763,-2.385932,-1.0404875,3.195436,-2.312125,-1.8570304
710,2026-05-11 16:18:31.058205,-2.1059763,-2.385932,-1.0404875,3.195436,-2.312125,-1.8570304
711,2026-05-11 16:18:31.060786,-2.1059763,-2.385932,-1.0404875,3.195436,-2.312125,-1.8570304
712,2026-05-11 16:18:31.063377,-2.1059763,-2.385932,-1.0404875,3.195436,-2.312125,-1.8570304
713,2026-05-11 16:18:31.066184,-2.110001,-2.371053,-1.0103029,1.4278975,-0.94974273,-0.07391469
714,2026-05-11 16:18:31.068752,-2.110001,-2.371053,-1.0103029,1.4278975,-0.94974273,-0.07391469
715,2026-05-11 16:18:31.071873,-2.110001,-2.371053,-1.0103029,1.4278975,-0.94974273,-0.07391469
716,2026-05-11 16:18:31.074843,-2.110001,-2.371053,-1.0103029,1.4278975,-0.94974273,-0.07391469
717,2026-05-11 16:18:31.077502,-2.110001,-2.371053,-1.0103029,1.4278975,-0.94974273,-0.07391469
718,2026-05-11 16:18:31.080098,-2.110001,-2.371053,-1.0103029,1.4278975,-0.94974273,-0.07391469
719,2026-05-11 16:18:31.082736,-2.110001,-2.371053,-1.0103029,1.4278975,-0.94974273,-0.07391469
720,2026-05-11 16:18:31.085285,-2.110001,-2.371053,-1.0103029,1.4278975,-0.94974273,-0.07391469
721,2026-05-11 16:18:31.087901,-2.110001,-2.371053,-1.0103029,1.4278975,-0.94974273,-0.07391469
722,2026-05-11 16:18:31.091036,-2.110001,-2.371053,-1.0103029,1.4278975,-0.94974273,-0.07391469
723,2026-05-11 16:18:31.094010,-2.110001,-2.371053,-1.0103029,0.28069258,0.15225816,0.9859365
724,2026-05-11 16:18:31.096689,-2.110001,-2.371053,-1.0103029,0.28069258,0.15225816,0.9859365
725,2026-05-11 16:18:31.099275,-2.110001,-2.371053,-1.0103029,0.28069258,0.15225816,0.9859365
726,2026-05-11 16:18:31.101975,-2.110001,-2.371053,-1.0103029,0.28069258,0.15225816,0.9859365
727,2026-05-11 16:18:31.105367,-1.9298077,-2.3441002,-0.83907336,0.28069258,0.15225816,0.9859365
728,2026-05-11 16:18:31.108203,-1.7345525,-2.2954998,-0.6775395,-0.5143485,0.94791013,1.7574593
729,2026-05-11 16:18:31.110780,-1.7345525,-2.2954998,-0.6775395,-0.5143485,0.94791013,1.7574593
730,2026-05-11 16:18:31.113513,-1.7345525,-2.2954998,-0.6775395,-0.5143485,0.94791013,1.7574593
731,2026-05-11 16:18:31.116133,-1.7345525,-2.2954998,-0.6775395,-0.5143485,0.94791013,1.7574593
732,2026-05-11 16:18:31.118722,-1.7345525,-2.2954998,-0.6775395,-0.5143485,0.94791013,1.7574593
733,2026-05-11 16:18:31.121327,-1.7345525,-2.2954998,-0.6775395,-0.5143485,0.94791013,1.7574593
734,2026-05-11 16:18:31.124358,-1.7345525,-2.2954998,-0.6775395,-0.5143485,0.94791013,1.7574593
735,2026-05-11 16:18:31.127025,-1.7345525,-2.2954998,-0.6775395,-0.5143485,0.94791013,1.7574593
736,2026-05-11 16:18:31.129764,-1.7345525,-2.2954998,-0.6775395,-0.5143485,0.94791013,1.7574593
737,2026-05-11 16:18:31.132489,-1.7345525,-2.2954998,-0.6775395,-0.5143485,0.94791013,1.7574593
738,2026-05-11 16:18:31.135153,-1.7345525,-2.2954998,-0.6775395,-0.5143485,0.94791013,1.7574593
739,2026-05-11 16:18:31.138160,-1.7345525,-2.2954998,-0.6775395,-0.5143485,0.94791013,1.7574593
740,2026-05-11 16:18:31.141229,-1.7345525,-2.2954998,-0.6775395,-0.5143485,0.94791013,1.7574593
741,2026-05-11 16:18:31.143998,-1.255439,-2.225252,-0.44709927,-1.4894422,1.983174,2.7491992
742,2026-05-11 16:18:31.146785,-1.255439,-2.225252,-0.44709927,-1.4894422,1.983174,2.7491992
743,2026-05-11 16:18:31.149579,-1.255439,-2.225252,-0.44709927,-1.4894422,1.983174,2.7491992
744,2026-05-11 16:18:31.152194,-1.255439,-2.225252,-0.44709927,-1.4894422,1.983174,2.7491992
745,2026-05-11 16:18:31.155443,-1.255439,-2.225252,-0.44709927,-1.4894422,1.983174,2.7491992
746,2026-05-11 16:18:31.158334,-1.255439,-2.225252,-0.44709927,-1.4894422,1.983174,2.7491992
747,2026-05-11 16:18:31.161177,-1.255439,-2.225252,-0.44709927,-1.4894422,1.983174,2.7491992
748,2026-05-11 16:18:31.163889,-0.6231461,-1.9205998,-0.24025792,-1.8758144,2.4298692,3.0877712
749,2026-05-11 16:18:31.166546,-0.6231461,-1.9205998,-0.24025792,-1.8758144,2.4298692,3.0877712
750,2026-05-11 16:18:31.169219,-0.6231461,-1.9205998,-0.24025792,-1.8758144,2.4298692,3.0877712
751,2026-05-11 16:18:31.172121,-0.6231461,-1.9205998,-0.24025792,-1.8758144,2.4298692,3.0877712
752,2026-05-11 16:18:31.175056,-0.6231461,-1.9205998,-0.24025792,-1.8758144,2.4298692,3.0877712
753,2026-05-11 16:18:31.177812,-0.6231461,-1.9205998,-0.24025792,-3.0870075,3.3783903,3.7737727
754,2026-05-11 16:18:31.180477,-0.6231461,-1.9205998,-0.24025792,-3.0870075,3.3783903,3.7737727
755,2026-05-11 16:18:31.183097,-0.6231461,-1.9205998,-0.24025792,-3.0870075,3.3783903,3.7737727
756,2026-05-11 16:18:31.185839,-0.6231461,-1.9205998,-0.24025792,-3.0870075,3.3783903,3.7737727
757,2026-05-11 16:18:31.188650,-0.6231461,-1.9205998,-0.24025792,-3.0870075,3.3783903,3.7737727
758,2026-05-11 16:18:31.191570,-0.6231461,-1.9205998,-0.24025792,-3.0870075,3.3783903,3.7737727
759,2026-05-11 16:18:31.194190,-0.6231461,-1.9205998,-0.24025792,-3.0870075,3.3783903,3.7737727
760,2026-05-11 16:18:31.196868,-0.6231461,-1.9205998,-0.24025792,-3.0870075,3.3783903,3.7737727
761,2026-05-11 16:18:31.199590,-0.6231461,-1.9205998,-0.24025792,-3.0870075,3.3783903,3.7737727
762,2026-05-11 16:18:31.202185,-0.6231461,-1.9205998,-0.24025792,-3.0870075,3.3783903,3.7737727
763,2026-05-11 16:18:31.205339,-0.6231461,-1.9205998,-0.24025792,-3.0870075,3.3783903,3.7737727
764,2026-05-11 16:18:31.208119,-0.36489934,-1.7549195,-0.11171384,-3.0870075,3.3783903,3.7737727
765,2026-05-11 16:18:31.210747,-0.36489934,-1.7549195,-0.11171384,-3.0870075,3.3783903,3.7737727
766,2026-05-11 16:18:31.213512,-0.36489934,-1.7549195,-0.11171384,-3.0870075,3.3783903,3.7737727
767,2026-05-11 16:18:31.216193,-0.36489934,-1.7549195,-0.11171384,-3.0870075,3.3783903,3.7737727
768,2026-05-11 16:18:31.218797,-0.36489934,-1.7549195,-0.11171384,-3.0870075,3.3783903,3.7737727
769,2026-05-11 16:18:31.221548,-0.36489934,-1.7549195,-0.11171384,-3.0870075,3.3783903,3.7737727
770,2026-05-11 16:18:31.224571,-0.16189969,-1.6096061,0.048234522,-3.653585,3.8362339,4.0005565
771,2026-05-11 16:18:31.227292,-0.16189969,-1.6096061,0.048234522,-3.653585,3.8362339,4.0005565
772,2026-05-11 16:18:31.229995,-0.00024391667,-1.551249,0.2087317,-3.653585,3.8362339,4.0005565
773,2026-05-11 16:18:31.232601,-0.00024391667,-1.551249,0.2087317,-3.653585,3.8362339,4.0005565
774,2026-05-11 16:18:31.235232,-0.00024391667,-1.551249,0.2087317,-3.653585,3.8362339,4.0005565
775,2026-05-11 16:18:31.238101,-0.00024391667,-1.551249,0.2087317,-3.653585,3.8362339,4.0005565
776,2026-05-11 16:18:31.241202,-0.00024391667,-1.551249,0.2087317,-3.653585,3.8362339,4.0005565
777,2026-05-11 16:18:31.243968,-0.00024391667,-1.551249,0.2087317,-3.653585,3.8362339,4.0005565
778,2026-05-11 16:18:31.246767,-0.00024391667,-1.551249,0.2087317,-3.653585,3.8362339,4.0005565
779,2026-05-11 16:18:31.249491,-0.00024391667,-1.551249,0.2087317,-3.653585,3.8362339,4.0005565
780,2026-05-11 16:18:31.252187,-0.00024391667,-1.551249,0.2087317,-3.653585,3.8362339,4.0005565
781,2026-05-11 16:18:31.255380,-0.00024391667,-1.551249,0.2087317,-3.653585,3.8362339,4.0005565
782,2026-05-11 16:18:31.258324,-0.00024391667,-1.551249,0.2087317,-4.1123447,4.3385177,4.1297545
783,2026-05-11 16:18:31.261111,-0.00024391667,-1.551249,0.2087317,-4.1123447,4.3385177,4.1297545
784,2026-05-11 16:18:31.263847,-0.00024391667,-1.551249,0.2087317,-4.1123447,4.3385177,4.1297545
785,2026-05-11 16:18:31.266562,-0.00024391667,-1.551249,0.2087317,-4.1123447,4.3385177,4.1297545
786,2026-05-11 16:18:31.269380,0.048722353,-1.4976484,0.3322145,-5.086064,5.2076263,4.4273987
787,2026-05-11 16:18:31.272202,0.048722353,-1.4976484,0.3322145,-5.086064,5.2076263,4.4273987
788,2026-05-11 16:18:31.274971,0.048722353,-1.4976484,0.3322145,-5.086064,5.2076263,4.4273987
789,2026-05-11 16:18:31.277586,0.048722353,-1.4976484,0.3322145,-5.086064,5.2076263,4.4273987
790,2026-05-11 16:18:31.280413,0.048722353,-1.4976484,0.3322145,-5.086064,5.2076263,4.4273987
791,2026-05-11 16:18:31.283268,-0.021403689,-1.3644698,0.45691693,-5.086064,5.2076263,4.4273987
792,2026-05-11 16:18:31.285985,-0.021403689,-1.3644698,0.45691693,-5.086064,5.2076263,4.4273987
793,2026-05-11 16:18:31.289057,-0.021403689,-1.3644698,0.45691693,-5.086064,5.2076263,4.4273987
794,2026-05-11 16:18:31.292024,0.06079623,-1.0921369,0.9214562,-5.921117,4.3295074,4.94923
795,2026-05-11 16:18:31.294656,0.06079623,-1.0921369,0.9214562,-5.921117,4.3295074,4.94923
796,2026-05-11 16:18:31.297356,0.06079623,-1.0921369,0.9214562,-5.921117,4.3295074,4.94923
797,2026-05-11 16:18:31.299933,0.06079623,-1.0921369,0.9214562,-5.921117,4.3295074,4.94923
798,2026-05-11 16:18:31.302810,0.06079623,-1.0921369,0.9214562,-5.921117,4.3295074,4.94923
799,2026-05-11 16:18:31.306042,0.06079623,-1.0921369,0.9214562,-6.3859854,3.2727106,5.6030087
800,2026-05-11 16:18:31.308901,0.06079623,-1.0921369,0.9214562,-6.3859854,3.2727106,5.6030087
801,2026-05-11 16:18:31.311517,0.06079623,-1.0921369,0.9214562,-6.3859854,3.2727106,5.6030087
802,2026-05-11 16:18:31.314130,0.06079623,-1.0921369,0.9214562,-6.3859854,3.2727106,5.6030087
803,2026-05-11 16:18:31.316763,0.06079623,-1.0921369,0.9214562,-6.3859854,3.2727106,5.6030087
804,2026-05-11 16:18:31.319506,0.06079623,-1.0921369,0.9214562,-6.3859854,3.2727106,5.6030087
805,2026-05-11 16:18:31.322526,0.06079623,-1.0921369,0.9214562,-6.3859854,3.2727106,5.6030087
806,2026-05-11 16:18:31.325343,0.06079623,-1.0921369,0.9214562,-6.3859854,3.2727106,5.6030087
807,2026-05-11 16:18:31.327943,0.06079623,-1.0921369,0.9214562,-6.3859854,3.2727106,5.6030087
808,2026-05-11 16:18:31.330564,0.06079623,-1.0921369,0.9214562,-6.3859854,3.2727106,5.6030087
809,2026-05-11 16:18:31.333475,0.19464551,-1.0645744,1.0764043,-6.3859854,3.2727106,5.6030087
810,2026-05-11 16:18:31.336154,0.19464551,-1.0645744,1.0764043,-6.3859854,3.2727106,5.6030087
811,2026-05-11 16:18:31.339218,0.19464551,-1.0645744,1.0764043,-6.3859854,3.2727106,5.6030087
812,2026-05-11 16:18:31.342070,0.19464551,-1.0645744,1.0764043,-6.3859854,3.2727106,5.6030087
813,2026-05-11 16:18:31.344720,0.19464551,-1.0645744,1.0764043,-6.3859854,3.2727106,5.6030087
814,2026-05-11 16:18:31.347333,0.19464551,-1.0645744,1.0764043,-6.3859854,3.2727106,5.6030087
815,2026-05-11 16:18:31.350164,0.19464551,-1.0645744,1.0764043,-6.3859854,3.2727106,5.6030087
816,2026-05-11 16:18:31.352898,0.19464551,-1.0645744,1.0764043,-6.3859854,3.2727106,5.6030087
817,2026-05-11 16:18:31.355943,0.19464551,-1.0645744,1.0764043,-6.3859854,3.2727106,5.6030087
818,2026-05-11 16:18:31.358754,0.19464551,-1.0645744,1.0764043,-6.3859854,3.2727106,5.6030087
819,2026-05-11 16:18:31.361520,0.19464551,-1.0645744,1.0764043,-6.3859854,3.2727106,5.6030087
820,2026-05-11 16:18:31.364091,0.19464551,-1.0645744,1.0764043,-6.3859854,3.2727106,5.6030087
821,2026-05-11 16:18:31.366884,0.19464551,-1.0645744,1.0764043,-6.3859854,3.2727106,5.6030087
822,2026-05-11 16:18:31.369500,0.19464551,-1.0645744,1.0764043,-6.3859854,3.2727106,5.6030087
823,2026-05-11 16:18:31.372397,0.19464551,-1.0645744,1.0764043,-6.3859854,3.2727106,5.6030087
824,2026-05-11 16:18:31.375198,0.19464551,-1.0645744,1.0764043,-6.3859854,3.2727106,5.6030087
825,2026-05-11 16:18:31.377829,0.19464551,-1.0645744,1.0764043,-6.3859854,3.2727106,5.6030087
826,2026-05-11 16:18:31.380552,0.19464551,-1.0645744,1.0764043,-6.3859854,3.2727106,5.6030087
827,2026-05-11 16:18:31.383187,0.19464551,-1.0645744,1.0764043,-6.3859854,3.2727106,5.6030087
828,2026-05-11 16:18:31.385774,0.19464551,-1.0645744,1.0764043,-6.3859854,3.2727106,5.6030087
829,2026-05-11 16:18:31.388843,0.19464551,-1.0645744,1.0764043,-6.3859854,3.2727106,5.6030087
830,2026-05-11 16:18:31.391636,0.19464551,-1.0645744,1.0764043,-6.3859854,3.2727106,5.6030087
831,2026-05-11 16:18:31.394370,0.19464551,-1.0645744,1.0764043,-6.3859854,3.2727106,5.6030087
832,2026-05-11 16:18:31.396972,0.19464551,-1.0645744,1.0764043,-6.3859854,3.2727106,5.6030087
833,2026-05-11 16:18:31.399663,0.19464551,-1.0645744,1.0764043,-6.3859854,3.2727106,5.6030087
834,2026-05-11 16:18:31.402218,0.19464551,-1.0645744,1.0764043,-6.3859854,3.2727106,5.6030087
835,2026-05-11 16:18:31.405345,0.19464551,-1.0645744,1.0764043,-6.3859854,3.2727106,5.6030087
836,2026-05-11 16:18:31.408208,0.19464551,-1.0645744,1.0764043,-6.3859854,3.2727106,5.6030087
837,2026-05-11 16:18:31.410976,0.91962683,-1.0075588,1.5594813,-6.840622,2.24157,6.639189
838,2026-05-11 16:18:31.413595,0.91962683,-1.0075588,1.5594813,-6.840622,2.24157,6.639189
839,2026-05-11 16:18:31.416343,0.91962683,-1.0075588,1.5594813,-6.840622,2.24157,6.639189
840,2026-05-11 16:18:31.418925,0.91962683,-1.0075588,1.5594813,-6.840622,2.24157,6.639189
841,2026-05-11 16:18:31.421996,0.91962683,-1.0075588,1.5594813,-6.840622,2.24157,6.639189
842,2026-05-11 16:18:31.424757,0.91962683,-1.0075588,1.5594813,-6.840622,2.24157,6.639189
843,2026-05-11 16:18:31.427361,0.91962683,-1.0075588,1.5594813,-6.840622,2.24157,6.639189
844,2026-05-11 16:18:31.430196,0.91962683,-1.0075588,1.5594813,-6.840622,2.24157,6.639189
845,2026-05-11 16:18:31.432891,0.91962683,-1.0075588,1.5594813,-6.840622,2.24157,6.639189
846,2026-05-11 16:18:31.435547,0.91962683,-1.0075588,1.5594813,-6.840622,2.24157,6.639189
847,2026-05-11 16:18:31.438391,0.91962683,-1.0075588,1.5594813,-6.840622,2.24157,6.639189
848,2026-05-11 16:18:31.466466,1.3716043,-0.8881616,1.6999164,-6.8693323,2.2886066,6.7593765
849,2026-05-11 16:18:31.470899,1.3716043,-0.8881616,1.6999164,-6.8693323,2.2886066,6.7593765
850,2026-05-11 16:18:31.478213,1.3716043,-0.8881616,1.6999164,-6.8693323,2.2886066,6.7593765
851,2026-05-11 16:18:31.481086,1.3716043,-0.8881616,1.6999164,-6.8693323,2.2886066,6.7593765
852,2026-05-11 16:18:31.483704,1.3716043,-0.8881616,1.6999164,-6.8693323,2.2886066,6.7593765
853,2026-05-11 16:18:31.486512,1.3716043,-0.8881616,1.6999164,-6.8693323,2.2886066,6.7593765
854,2026-05-11 16:18:31.489467,1.5994226,-0.6950405,1.6594261,-7.0292263,2.53112,6.727917
855,2026-05-11 16:18:31.492245,1.5994226,-0.6950405,1.6594261,-7.0292263,2.53112,6.727917
856,2026-05-11 16:18:31.494857,1.5994226,-0.6950405,1.6594261,-7.0292263,2.53112,6.727917
857,2026-05-11 16:18:31.497737,1.5994226,-0.6950405,1.6594261,-7.0292263,2.53112,6.727917
858,2026-05-11 16:18:31.500378,1.5994226,-0.6950405,1.6594261,-7.0292263,2.53112,6.727917
859,2026-05-11 16:18:31.503063,1.5994226,-0.6950405,1.6594261,-7.0292263,2.53112,6.727917
860,2026-05-11 16:18:31.506281,1.5994226,-0.6950405,1.6594261,-7.0292263,2.53112,6.727917
861,2026-05-11 16:18:31.509037,1.5994226,-0.6950405,1.6594261,-7.0292263,2.53112,6.727917
862,2026-05-11 16:18:31.511735,1.5994226,-0.6950405,1.6594261,-7.0292263,2.53112,6.727917
863,2026-05-11 16:18:31.514455,1.5994226,-0.6950405,1.6594261,-7.0292263,2.53112,6.727917
864,2026-05-11 16:18:31.517073,1.5994226,-0.6950405,1.6594261,-7.0292263,2.53112,6.727917
865,2026-05-11 16:18:31.519814,1.5994226,-0.6950405,1.6594261,-7.0292263,2.53112,6.727917
866,2026-05-11 16:18:31.522798,1.5994226,-0.6950405,1.6594261,-7.0292263,2.53112,6.727917
867,2026-05-11 16:18:31.525587,1.5829582,-0.6236949,1.6021057,-7.0292263,2.53112,6.727917
868,2026-05-11 16:18:31.528375,1.5829582,-0.6236949,1.6021057,-7.3731437,2.5546384,6.655682
869,2026-05-11 16:18:31.530984,1.5829582,-0.6236949,1.6021057,-7.3731437,2.5546384,6.655682
870,2026-05-11 16:18:31.533787,1.5829582,-0.6236949,1.6021057,-7.3731437,2.5546384,6.655682
871,2026-05-11 16:18:31.536464,1.5829582,-0.6236949,1.6021057,-7.3731437,2.5546384,6.655682
872,2026-05-11 16:18:31.539661,1.5829582,-0.6236949,1.6021057,-7.3731437,2.5546384,6.655682
873,2026-05-11 16:18:31.542517,1.5829582,-0.6236949,1.6021057,-7.3731437,2.5546384,6.655682
874,2026-05-11 16:18:31.545306,1.5829582,-0.6236949,1.6021057,-7.3731437,2.5546384,6.655682
875,2026-05-11 16:18:31.547897,1.5829582,-0.6236949,1.6021057,-7.3731437,2.5546384,6.655682
876,2026-05-11 16:18:31.550661,1.5829582,-0.6236949,1.6021057,-7.3731437,2.5546384,6.655682
877,2026-05-11 16:18:31.553352,1.5829582,-0.6236949,1.6021057,-7.3731437,2.5546384,6.655682
878,2026-05-11 16:18:31.556443,1.5829582,-0.6236949,1.6021057,-7.3731437,2.5546384,6.655682
879,2026-05-11 16:18:31.559301,1.5829582,-0.6236949,1.6021057,-7.3731437,2.5546384,6.655682
880,2026-05-11 16:18:31.562058,1.6252168,-0.61607254,1.6782686,-7.531052,2.3677137,6.6309423
881,2026-05-11 16:18:31.564769,1.6252168,-0.61607254,1.6782686,-7.531052,2.3677137,6.6309423
882,2026-05-11 16:18:31.567547,1.6252168,-0.61607254,1.6782686,-7.531052,2.3677137,6.6309423
883,2026-05-11 16:18:31.570165,1.6252168,-0.61607254,1.6782686,-7.531052,2.3677137,6.6309423
884,2026-05-11 16:18:31.573309,1.6252168,-0.61607254,1.6782686,-7.531052,2.3677137,6.6309423
885,2026-05-11 16:18:31.575924,1.6252168,-0.61607254,1.6782686,-7.531052,2.3677137,6.6309423
886,2026-05-11 16:18:31.578731,1.6252168,-0.61607254,1.6782686,-7.531052,2.3677137,6.6309423
887,2026-05-11 16:18:31.581340,1.6252168,-0.61607254,1.6782686,-7.531052,2.3677137,6.6309423
888,2026-05-11 16:18:31.583877,1.6252168,-0.61607254,1.6782686,-7.531052,2.3677137,6.6309423
889,2026-05-11 16:18:31.586428,1.6252168,-0.61607254,1.6782686,-7.531052,2.3677137,6.6309423
890,2026-05-11 16:18:31.589344,1.6252168,-0.61607254,1.6782686,-7.531052,2.3677137,6.6309423
891,2026-05-11 16:18:31.592074,1.6252168,-0.61607254,1.6782686,-7.531052,2.3677137,6.6309423
892,2026-05-11 16:18:31.594705,1.6252168,-0.61607254,1.6782686,-7.531052,2.3677137,6.6309423
893,2026-05-11 16:18:31.597267,1.6252168,-0.61607254,1.6782686,-7.531052,2.3677137,6.6309423
894,2026-05-11 16:18:31.600032,1.6252168,-0.61607254,1.6782686,-7.531052,2.3677137,6.6309423
895,2026-05-11 16:18:31.602654,1.6252168,-0.61607254,1.6782686,-7.531052,2.3677137,6.6309423
896,2026-05-11 16:18:31.605463,1.6252168,-0.61607254,1.6782686,-7.531052,2.3677137,6.6309423
897,2026-05-11 16:18:31.608156,1.6252168,-0.61607254,1.6782686,-7.531052,2.3677137,6.6309423
898,2026-05-11 16:18:31.610776,1.6252168,-0.61607254,1.6782686,-7.531052,2.3677137,6.6309423
899,2026-05-11 16:18:31.613398,1.6252168,-0.61607254,1.6782686,-7.531052,2.3677137,6.6309423
900,2026-05-11 16:18:31.615971,1.6252168,-0.61607254,1.6782686,-7.531052,2.3677137,6.6309423
901,2026-05-11 16:18:31.618526,1.6252168,-0.61607254,1.6782686,-7.531052,2.3677137,6.6309423
902,2026-05-11 16:18:31.621505,1.6252168,-0.61607254,1.6782686,-7.531052,2.3677137,6.6309423
903,2026-05-11 16:18:31.624296,1.6252168,-0.61607254,1.6782686,-7.531052,2.3677137,6.6309423
904,2026-05-11 16:18:31.626878,1.6252168,-0.61607254,1.6782686,-7.531052,2.3677137,6.6309423
905,2026-05-11 16:18:31.629533,1.6252168,-0.61607254,1.6782686,-7.531052,2.3677137,6.6309423
906,2026-05-11 16:18:31.632184,1.6252168,-0.61607254,1.6782686,-7.531052,2.3677137,6.6309423
907,2026-05-11 16:18:31.634769,1.6252168,-0.61607254,1.6782686,-7.531052,2.3677137,6.6309423
908,2026-05-11 16:18:31.637596,1.6252168,-0.61607254,1.6782686,-7.531052,2.3677137,6.6309423
909,2026-05-11 16:18:31.640624,1.6252168,-0.61607254,1.6782686,-7.531052,2.3677137,6.6309423
910,2026-05-11 16:18:31.643311,1.6252168,-0.61607254,1.6782686,-7.531052,2.3677137,6.6309423
911,2026-05-11 16:18:31.646000,1.8399245,-0.5669843,2.1120746,-7.1700306,1.5260941,6.354373
912,2026-05-11 16:18:31.648868,1.8399245,-0.5669843,2.1120746,-7.1700306,1.5260941,6.354373
913,2026-05-11 16:18:31.651478,1.8399245,-0.5669843,2.1120746,-7.1700306,1.5260941,6.354373
914,2026-05-11 16:18:31.654392,1.8399245,-0.5669843,2.1120746,-7.1700306,1.5260941,6.354373
915,2026-05-11 16:18:31.657358,1.8399245,-0.5669843,2.1120746,-7.1700306,1.5260941,6.354373
916,2026-05-11 16:18:31.659941,1.8399245,-0.5669843,2.1120746,-7.1700306,1.5260941,6.354373
917,2026-05-11 16:18:31.662551,1.8399245,-0.5669843,2.1120746,-7.1700306,1.5260941,6.354373
918,2026-05-11 16:18:31.665173,1.8399245,-0.5669843,2.1120746,-7.1700306,1.5260941,6.354373
919,2026-05-11 16:18:31.667764,1.8399245,-0.5669843,2.1120746,-7.1700306,1.5260941,6.354373
920,2026-05-11 16:18:31.670573,1.8399245,-0.5669843,2.1120746,-6.6323166,1.0372492,6.123771
921,2026-05-11 16:18:31.673835,1.8399245,-0.5669843,2.1120746,-6.6323166,1.0372492,6.123771
922,2026-05-11 16:18:31.676509,1.8399245,-0.5669843,2.1120746,-6.6323166,1.0372492,6.123771
923,2026-05-11 16:18:31.679079,1.8399245,-0.5669843,2.1120746,-6.6323166,1.0372492,6.123771
924,2026-05-11 16:18:31.681674,1.8399245,-0.5669843,2.1120746,-6.6323166,1.0372492,6.123771
925,2026-05-11 16:18:31.684426,1.8399245,-0.5669843,2.1120746,-6.6323166,1.0372492,6.123771
926,2026-05-11 16:18:31.687079,1.8399245,-0.5669843,2.1120746,-6.6323166,1.0372492,6.123771
927,2026-05-11 16:18:31.690264,1.8399245,-0.5669843,2.1120746,-6.6323166,1.0372492,6.123771
928,2026-05-11 16:18:31.692983,1.8399245,-0.5669843,2.1120746,-6.6323166,1.0372492,6.123771
929,2026-05-11 16:18:31.695667,1.9512113,-0.4804549,2.2841575,-6.6323166,1.0372492,6.123771
930,2026-05-11 16:18:31.698277,1.9512113,-0.4804549,2.2841575,-6.6323166,1.0372492,6.123771
931,2026-05-11 16:18:31.700841,1.9512113,-0.4804549,2.2841575,-6.6323166,1.0372492,6.123771
932,2026-05-11 16:18:31.703439,1.9512113,-0.4804549,2.2841575,-6.6323166,1.0372492,6.123771
933,2026-05-11 16:18:31.706408,1.9512113,-0.4804549,2.2841575,-6.6323166,1.0372492,6.123771
934,2026-05-11 16:18:31.709192,1.9512113,-0.4804549,2.2841575,-6.6323166,1.0372492,6.123771
935,2026-05-11 16:18:31.711897,1.9512113,-0.4804549,2.2841575,-6.6323166,1.0372492,6.123771
936,2026-05-11 16:18:31.714486,1.9512113,-0.4804549,2.2841575,-6.6323166,1.0372492,6.123771
937,2026-05-11 16:18:31.717170,1.9512113,-0.4804549,2.2841575,-6.6323166,1.0372492,6.123771
938,2026-05-11 16:18:31.719745,1.9512113,-0.4804549,2.2841575,-6.6323166,1.0372492,6.123771
939,2026-05-11 16:18:31.722798,1.9512113,-0.4804549,2.2841575,-6.6323166,1.0372492,6.123771
940,2026-05-11 16:18:31.725487,1.9512113,-0.4804549,2.2841575,-6.6323166,1.0372492,6.123771
941,2026-05-11 16:18:31.728079,1.9512113,-0.4804549,2.2841575,-6.6323166,1.0372492,6.123771
942,2026-05-11 16:18:31.730857,1.9512113,-0.4804549,2.2841575,-6.6323166,1.0372492,6.123771
943,2026-05-11 16:18:31.733500,1.9512113,-0.4804549,2.2841575,-6.6323166,1.0372492,6.123771
944,2026-05-11 16:18:31.736098,1.9512113,-0.4804549,2.2841575,-6.6323166,1.0372492,6.123771
945,2026-05-11 16:18:31.739213,1.9512113,-0.4804549,2.2841575,-6.6323166,1.0372492,6.123771
946,2026-05-11 16:18:31.741883,1.9512113,-0.4804549,2.2841575,-6.6323166,1.0372492,6.123771
947,2026-05-11 16:18:31.744502,1.9512113,-0.4804549,2.2841575,-6.6323166,1.0372492,6.123771
948,2026-05-11 16:18:31.747173,1.9512113,-0.4804549,2.2841575,-6.6323166,1.0372492,6.123771
949,2026-05-11 16:18:31.749832,1.9512113,-0.4804549,2.2841575,-6.6323166,1.0372492,6.123771
950,2026-05-11 16:18:31.752445,1.9512113,-0.4804549,2.2841575,-6.6323166,1.0372492,6.123771
951,2026-05-11 16:18:31.755326,1.9512113,-0.4804549,2.2841575,-6.6323166,1.0372492,6.123771
952,2026-05-11 16:18:31.758132,1.9512113,-0.4804549,2.2841575,-6.6323166,1.0372492,6.123771
953,2026-05-11 16:18:31.760727,1.9512113,-0.4804549,2.2841575,-6.6323166,1.0372492,6.123771
954,2026-05-11 16:18:31.763392,1.9512113,-0.4804549,2.2841575,-6.6323166,1.0372492,6.123771
955,2026-05-11 16:18:31.765973,1.9512113,-0.4804549,2.2841575,-6.6323166,1.0372492,6.123771
956,2026-05-11 16:18:31.768801,1.9512113,-0.4804549,2.2841575,-6.6323166,1.0372492,6.123771
957,2026-05-11 16:18:31.771680,1.9512113,-0.4804549,2.2841575,-6.6323166,1.0372492,6.123771
958,2026-05-11 16:18:31.774537,1.9512113,-0.4804549,2.2841575,-6.6323166,1.0372492,6.123771
959,2026-05-11 16:18:31.777228,1.9512113,-0.4804549,2.2841575,-6.6323166,1.0372492,6.123771
960,2026-05-11 16:18:31.779947,1.9512113,-0.4804549,2.2841575,-6.6323166,1.0372492,6.123771
961,2026-05-11 16:18:31.782641,1.9512113,-0.4804549,2.2841575,-6.6323166,1.0372492,6.123771
962,2026-05-11 16:18:31.785307,1.8787681,-0.2836141,2.3291605,-6.6323166,1.0372492,6.123771
963,2026-05-11 16:18:31.788261,1.8787681,-0.2836141,2.3291605,-6.6323166,1.0372492,6.123771
964,2026-05-11 16:18:31.791066,1.8787681,-0.2836141,2.3291605,-5.212666,0.07269296,5.595831
965,2026-05-11 16:18:31.793715,1.8787681,-0.2836141,2.3291605,-5.212666,0.07269296,5.595831
966,2026-05-11 16:18:31.796293,1.8787681,-0.2836141,2.3291605,-5.212666,0.07269296,5.595831
967,2026-05-11 16:18:31.799128,1.8787681,-0.2836141,2.3291605,-5.212666,0.07269296,5.595831
968,2026-05-11 16:18:31.801899,1.8787681,-0.2836141,2.3291605,-5.212666,0.07269296,5.595831
969,2026-05-11 16:18:31.804637,1.8787681,-0.2836141,2.3291605,-5.212666,0.07269296,5.595831
970,2026-05-11 16:18:31.807602,1.8787681,-0.2836141,2.3291605,-5.212666,0.07269296,5.595831
971,2026-05-11 16:18:31.810246,1.8787681,-0.2836141,2.3291605,-5.212666,0.07269296,5.595831
972,2026-05-11 16:18:31.813074,1.8787681,-0.2836141,2.3291605,-5.212666,0.07269296,5.595831
973,2026-05-11 16:18:31.815742,1.8787681,-0.2836141,2.3291605,-5.212666,0.07269296,5.595831
974,2026-05-11 16:18:31.818337,1.8787681,-0.2836141,2.3291605,-5.212666,0.07269296,5.595831
975,2026-05-11 16:18:31.821306,1.7772378,-0.17147341,2.1240873,-5.212666,0.07269296,5.595831
976,2026-05-11 16:18:31.824132,1.7772378,-0.17147341,2.1240873,-5.212666,0.07269296,5.595831
977,2026-05-11 16:18:31.826751,1.7772378,-0.17147341,2.1240873,-5.212666,0.07269296,5.595831
978,2026-05-11 16:18:31.829308,1.7772378,-0.17147341,2.1240873,-5.212666,0.07269296,5.595831
979,2026-05-11 16:18:31.832094,1.7772378,-0.17147341,2.1240873,-5.212666,0.07269296,5.595831
980,2026-05-11 16:18:31.834697,1.7772378,-0.17147341,2.1240873,-5.212666,0.07269296,5.595831
981,2026-05-11 16:18:31.837519,1.7772378,-0.17147341,2.1240873,-4.376544,-0.3594942,5.3846245
982,2026-05-11 16:18:31.840574,1.7772378,-0.17147341,2.1240873,-4.376544,-0.3594942,5.3846245
983,2026-05-11 16:18:31.843236,1.7772378,-0.17147341,2.1240873,-4.376544,-0.3594942,5.3846245
984,2026-05-11 16:18:31.845930,1.7772378,-0.17147341,2.1240873,-4.376544,-0.3594942,5.3846245
985,2026-05-11 16:18:31.848552,1.7772378,-0.17147341,2.1240873,-4.376544,-0.3594942,5.3846245
986,2026-05-11 16:18:31.851329,1.7772378,-0.17147341,2.1240873,-4.376544,-0.3594942,5.3846245
987,2026-05-11 16:18:31.853950,1.7772378,-0.17147341,2.1240873,-4.376544,-0.3594942,5.3846245
988,2026-05-11 16:18:31.857142,1.7772378,-0.17147341,2.1240873,-4.376544,-0.3594942,5.3846245
989,2026-05-11 16:18:31.859764,1.7772378,-0.17147341,2.1240873,-4.376544,-0.3594942,5.3846245
990,2026-05-11 16:18:31.862641,1.7772378,-0.17147341,2.1240873,-4.376544,-0.3594942,5.3846245
991,2026-05-11 16:18:31.865409,1.5428948,0.024086772,1.2672691,-3.887852,-0.5025894,5.2455
992,2026-05-11 16:18:31.868108,1.5428948,0.024086772,1.2672691,-3.887852,-0.5025894,5.2455
993,2026-05-11 16:18:31.870964,1.5428948,0.024086772,1.2672691,-3.887852,-0.5025894,5.2455
994,2026-05-11 16:18:31.874471,1.5428948,0.024086772,1.2672691,-3.887852,-0.5025894,5.2455
995,2026-05-11 16:18:31.877342,1.390386,-0.024635585,0.9661539,-4.7090073,0.50976706,5.0361257
996,2026-05-11 16:18:31.880217,1.390386,-0.024635585,0.9661539,-4.7090073,0.50976706,5.0361257
997,2026-05-11 16:18:31.883144,1.390386,-0.024635585,0.9661539,-4.7090073,0.50976706,5.0361257
998,2026-05-11 16:18:31.885915,1.390386,-0.024635585,0.9661539,-4.7090073,0.50976706,5.0361257
999,2026-05-11 16:18:31.889048,1.390386,-0.024635585,0.9661539,-4.7090073,0.50976706,5.0361257
1000,2026-05-11 16:18:31.891774,1.390386,-0.024635585,0.9661539,-4.7090073,0.50976706,5.0361257
1001,2026-05-11 16:18:31.894421,1.390386,-0.024635585,0.9661539,-4.7090073,0.50976706,5.0361257
1002,2026-05-11 16:18:31.897175,1.390386,-0.024635585,0.9661539,-4.7090073,0.50976706,5.0361257
1003,2026-05-11 16:18:31.899796,1.390386,-0.024635585,0.9661539,-4.7090073,0.50976706,5.0361257
1004,2026-05-11 16:18:31.902737,1.252695,-0.11872645,0.8159013,-4.7090073,0.50976706,5.0361257
1005,2026-05-11 16:18:31.905851,1.252695,-0.11872645,0.8159013,-5.67616,1.2483032,4.9770246
1006,2026-05-11 16:18:31.908636,1.252695,-0.11872645,0.8159013,-5.67616,1.2483032,4.9770246
1007,2026-05-11 16:18:31.911284,1.252695,-0.11872645,0.8159013,-5.67616,1.2483032,4.9770246
1008,2026-05-11 16:18:31.913931,1.252695,-0.11872645,0.8159013,-5.67616,1.2483032,4.9770246
1009,2026-05-11 16:18:31.916688,1.211595,-0.2423312,0.8713923,-6.5356474,1.6523905,4.918076
1010,2026-05-11 16:18:31.919338,1.2421457,-0.30532268,0.97603256,-6.8642926,1.6433803,4.845383
1011,2026-05-11 16:18:31.922379,1.3587378,-0.35032532,1.212022,-6.9565334,1.1233811,4.5987463
1012,2026-05-11 16:18:31.925433,1.3587378,-0.35032532,1.212022,-6.9565334,1.1233811,4.5987463
1013,2026-05-11 16:18:31.928096,1.3587378,-0.35032532,1.212022,-6.9565334,1.1233811,4.5987463
1014,2026-05-11 16:18:31.930704,1.3587378,-0.35032532,1.212022,-6.9565334,1.1233811,4.5987463
1015,2026-05-11 16:18:31.933305,1.3587378,-0.35032532,1.212022,-6.9565334,1.1233811,4.5987463
1016,2026-05-11 16:18:31.936123,1.3587378,-0.35032532,1.212022,-6.9565334,1.1233811,4.5987463
1017,2026-05-11 16:18:31.939096,1.565762,-0.2889193,1.3614819,-6.9565334,1.1233811,4.5987463
1018,2026-05-11 16:18:31.941874,1.565762,-0.2889193,1.3614819,-6.9565334,1.1233811,4.5987463
1019,2026-05-11 16:18:31.944493,1.565762,-0.2889193,1.3614819,-6.9565334,1.1233811,4.5987463
1020,2026-05-11 16:18:31.947356,1.565762,-0.2889193,1.3614819,-6.9565334,1.1233811,4.5987463
1021,2026-05-11 16:18:31.950111,1.565762,-0.2889193,1.3614819,-6.9565334,1.1233811,4.5987463
1022,2026-05-11 16:18:31.952769,1.565762,-0.2889193,1.3614819,-6.8325276,0.81000733,4.467105
1023,2026-05-11 16:18:31.955773,1.565762,-0.2889193,1.3614819,-6.8325276,0.81000733,4.467105
1024,2026-05-11 16:18:31.958575,1.565762,-0.2889193,1.3614819,-6.8325276,0.81000733,4.467105
1025,2026-05-11 16:18:31.961330,1.565762,-0.2889193,1.3614819,-6.8325276,0.81000733,4.467105
1026,2026-05-11 16:18:31.964078,1.7108924,-0.07591906,1.647962,-5.7303743,-0.71853024,3.6436584
1027,2026-05-11 16:18:31.966949,1.7108924,-0.07591906,1.647962,-5.102863,-1.2967142,3.4926221
1028,2026-05-11 16:18:31.969607,1.7108924,-0.07591906,1.647962,-5.102863,-1.2967142,3.4926221
1029,2026-05-11 16:18:31.972706,1.4760008,0.05860098,1.7067459,-4.714658,-1.4622587,3.5779905
1030,2026-05-11 16:18:31.975417,1.4760008,0.05860098,1.7067459,-4.714658,-1.4622587,3.5779905
1031,2026-05-11 16:18:31.978056,1.3567865,0.114823766,1.7424798,-4.714658,-1.4622587,3.5779905
1032,2026-05-11 16:18:31.980856,1.3870931,0.38130274,1.8840125,-3.722002,-0.80557853,4.2701006
1033,2026-05-11 16:18:31.983436,1.3870931,0.38130274,1.8840125,-3.722002,-0.80557853,4.2701006
1034,2026-05-11 16:18:31.985987,1.3870931,0.38130274,1.8840125,-3.722002,-0.80557853,4.2701006
1035,2026-05-11 16:18:31.989067,1.3870931,0.38130274,1.8840125,-3.722002,-0.80557853,4.2701006
1036,2026-05-11 16:18:31.991738,1.3870931,0.38130274,1.8840125,-3.722002,-0.80557853,4.2701006
1037,2026-05-11 16:18:31.994419,2.5812483,1.1578114,1.6702803,-3.1597004,0.007788532,4.1022654
1038,2026-05-11 16:18:31.997293,3.1096935,1.5527126,1.3886176,-3.1597004,0.007788532,4.1022654
1039,2026-05-11 16:18:32.000048,3.1096935,1.5527126,1.3886176,-3.1597004,0.007788532,4.1022654
1040,2026-05-11 16:18:32.002723,3.1096935,1.5527126,1.3886176,-3.1597004,0.007788532,4.1022654
1041,2026-05-11 16:18:32.005769,3.1096935,1.5527126,1.3886176,-3.1597004,0.007788532,4.1022654
1042,2026-05-11 16:18:32.008574,3.1096935,1.5527126,1.3886176,-3.1597004,0.007788532,4.1022654
1043,2026-05-11 16:18:32.011229,3.1096935,1.5527126,1.3886176,-3.1597004,0.007788532,4.1022654
1044,2026-05-11 16:18:32.014046,3.1096935,1.5527126,1.3886176,-3.1597004,0.007788532,4.1022654
1045,2026-05-11 16:18:32.016816,3.1096935,1.5527126,1.3886176,-3.1597004,0.007788532,4.1022654
1046,2026-05-11 16:18:32.019599,3.1096935,1.5527126,1.3886176,-3.2462907,0.30008754,2.4162774
1047,2026-05-11 16:18:32.022700,3.1096935,1.5527126,1.3886176,-3.2462907,0.30008754,2.4162774
1048,2026-05-11 16:18:32.025444,3.1096935,1.5527126,1.3886176,-3.2462907,0.30008754,2.4162774
1049,2026-05-11 16:18:32.028037,3.1096935,1.5527126,1.3886176,-3.2462907,0.30008754,2.4162774
1050,2026-05-11 16:18:32.030850,3.1096935,1.5527126,1.3886176,-3.2462907,0.30008754,2.4162774
1051,2026-05-11 16:18:32.033583,3.1096935,1.5527126,1.3886176,-3.2462907,0.30008754,2.4162774
1052,2026-05-11 16:18:32.036225,3.1096935,1.5527126,1.3886176,-3.2462907,0.30008754,2.4162774
1053,2026-05-11 16:18:32.039165,3.1096935,1.5527126,1.3886176,-3.2462907,0.30008754,2.4162774
1054,2026-05-11 16:18:32.041995,3.3097055,1.800105,1.1218338,-3.2462907,0.30008754,2.4162774
1055,2026-05-11 16:18:32.044687,3.3097055,1.800105,1.1218338,-3.2462907,0.30008754,2.4162774
1056,2026-05-11 16:18:32.047408,3.3097055,1.800105,1.1218338,-3.2462907,0.30008754,2.4162774
1057,2026-05-11 16:18:32.050028,3.3097055,1.800105,1.1218338,-3.2462907,0.30008754,2.4162774
1058,2026-05-11 16:18:32.052644,3.3097055,1.800105,1.1218338,-3.2462907,0.30008754,2.4162774
1059,2026-05-11 16:18:32.055588,3.3277552,1.9576751,0.87791705,-3.2462907,0.30008754,2.4162774
1060,2026-05-11 16:18:32.058327,3.3277552,1.9576751,0.87791705,-3.2462907,0.30008754,2.4162774
1061,2026-05-11 16:18:32.061052,3.3277552,1.9576751,0.87791705,-3.2462907,0.30008754,2.4162774
1062,2026-05-11 16:18:32.063718,3.3277552,1.9576751,0.87791705,-3.2462907,0.30008754,2.4162774
1063,2026-05-11 16:18:32.066336,3.3277552,1.9576751,0.87791705,-3.2462907,0.30008754,2.4162774
1064,2026-05-11 16:18:32.068903,3.3277552,1.9576751,0.87791705,-3.2462907,0.30008754,2.4162774
1065,2026-05-11 16:18:32.072340,3.3277552,1.9576751,0.87791705,-3.2462907,0.30008754,2.4162774
1066,2026-05-11 16:18:32.075111,3.3277552,1.9576751,0.87791705,-3.2462907,0.30008754,2.4162774
1067,2026-05-11 16:18:32.077727,3.3277552,1.9576751,0.87791705,-3.2462907,0.30008754,2.4162774
1068,2026-05-11 16:18:32.080348,3.3277552,1.9576751,0.87791705,-3.2462907,0.30008754,2.4162774
1069,2026-05-11 16:18:32.082943,3.3277552,1.9576751,0.87791705,-3.2462907,0.30008754,2.4162774
1070,2026-05-11 16:18:32.085674,3.3277552,1.9576751,0.87791705,-3.2462907,0.30008754,2.4162774
1071,2026-05-11 16:18:32.088577,3.3277552,1.9576751,0.87791705,-3.2462907,0.30008754,2.4162774
1072,2026-05-11 16:18:32.091414,3.3277552,1.9576751,0.87791705,-3.2462907,0.30008754,2.4162774
1073,2026-05-11 16:18:32.094204,3.3277552,1.9576751,0.87791705,-3.9267945,0.29810223,1.4749341
1074,2026-05-11 16:18:32.096920,3.3277552,1.9576751,0.87791705,-3.9267945,0.29810223,1.4749341
1075,2026-05-11 16:18:32.099668,3.3277552,1.9576751,0.87791705,-3.9267945,0.29810223,1.4749341
1076,2026-05-11 16:18:32.102267,3.3277552,1.9576751,0.87791705,-3.9267945,0.29810223,1.4749341
1077,2026-05-11 16:18:32.105422,3.3277552,1.9576751,0.87791705,-3.9267945,0.29810223,1.4749341
1078,2026-05-11 16:18:32.108315,3.3277552,1.9576751,0.87791705,-3.9267945,0.29810223,1.4749341
1079,2026-05-11 16:18:32.111039,3.3277552,1.9576751,0.87791705,-3.9267945,0.29810223,1.4749341
1080,2026-05-11 16:18:32.113933,2.6799734,2.2781816,1.7671763,-5.2995615,0.8593347,1.0839803
1081,2026-05-11 16:18:32.116733,2.6799734,2.2781816,1.7671763,-5.2995615,0.8593347,1.0839803
1082,2026-05-11 16:18:32.119538,2.6799734,2.2781816,1.7671763,-4.8192687,1.0781772,1.3171781
1083,2026-05-11 16:18:32.122678,2.6799734,2.2781816,1.7671763,-4.8192687,1.0781772,1.3171781
1084,2026-05-11 16:18:32.125512,2.6799734,2.2781816,1.7671763,-4.8192687,1.0781772,1.3171781
1085,2026-05-11 16:18:32.128274,2.6799734,2.2781816,1.7671763,-4.8192687,1.0781772,1.3171781
1086,2026-05-11 16:18:32.130896,2.6799734,2.2781816,1.7671763,-4.8192687,1.0781772,1.3171781
1087,2026-05-11 16:18:32.133521,2.6799734,2.2781816,1.7671763,-4.8192687,1.0781772,1.3171781
1088,2026-05-11 16:18:32.136144,2.6799734,2.2781816,1.7671763,-4.8192687,1.0781772,1.3171781
1089,2026-05-11 16:18:32.139561,2.6799734,2.2781816,1.7671763,-4.8192687,1.0781772,1.3171781
1090,2026-05-11 16:18:32.142598,2.6799734,2.2781816,1.7671763,-4.8192687,1.0781772,1.3171781
1091,2026-05-11 16:18:32.145334,2.6799734,2.2781816,1.7671763,-4.8192687,1.0781772,1.3171781
1092,2026-05-11 16:18:32.147961,2.6799734,2.2781816,1.7671763,-4.8192687,1.0781772,1.3171781
1093,2026-05-11 16:18:32.150703,2.6799734,2.2781816,1.7671763,-4.8192687,1.0781772,1.3171781
1094,2026-05-11 16:18:32.153413,2.6799734,2.2781816,1.7671763,-4.8192687,1.0781772,1.3171781
1095,2026-05-11 16:18:32.156670,2.6799734,2.2781816,1.7671763,-4.8192687,1.0781772,1.3171781
1096,2026-05-11 16:18:32.159985,2.9759665,2.5070975,2.2529364,-4.8192687,1.0781772,1.3171781
1097,2026-05-11 16:18:32.162668,2.9759665,2.5070975,2.2529364,-4.8192687,1.0781772,1.3171781
1098,2026-05-11 16:18:32.165511,2.9759665,2.5070975,2.2529364,-4.8192687,1.0781772,1.3171781
1099,2026-05-11 16:18:32.168154,2.9759665,2.5070975,2.2529364,-4.8192687,1.0781772,1.3171781
1100,2026-05-11 16:18:32.171162,2.9759665,2.5070975,2.2529364,-4.8192687,1.0781772,1.3171781
1101,2026-05-11 16:18:32.174042,2.9759665,2.5070975,2.2529364,-4.8192687,1.0781772,1.3171781
1102,2026-05-11 16:18:32.176916,3.3004367,2.7654052,2.628812,-3.706425,1.0186177,1.1737776
1103,2026-05-11 16:18:32.179632,3.3004367,2.7654052,2.628812,-3.706425,1.0186177,1.1737776
1104,2026-05-11 16:18:32.182306,3.5369136,3.0371284,2.8607767,-2.1972823,0.70112056,0.74006325
1105,2026-05-11 16:18:32.184925,3.5369136,3.0371284,2.8607767,-2.1972823,0.70112056,0.74006325
1106,2026-05-11 16:18:32.187644,3.740462,3.3828804,3.170673,-2.1972823,0.70112056,0.74006325
1107,2026-05-11 16:18:32.190659,3.740462,3.3828804,3.170673,-0.39354995,0.34391713,0.08674286
1108,2026-05-11 16:18:32.193321,3.740462,3.3828804,3.170673,-0.39354995,0.34391713,0.08674286
1109,2026-05-11 16:18:32.196094,3.740462,3.3828804,3.170673,-0.39354995,0.34391713,0.08674286
1110,2026-05-11 16:18:32.198740,3.740462,3.3828804,3.170673,-0.39354995,0.34391713,0.08674286
1111,2026-05-11 16:18:32.201352,3.740462,3.3828804,3.170673,-0.39354995,0.34391713,0.08674286
1112,2026-05-11 16:18:32.204158,3.7794278,3.4691656,3.1895764,-0.39354995,0.34391713,0.08674286
1113,2026-05-11 16:18:32.207577,3.7794278,3.4691656,3.1895764,-0.39354995,0.34391713,0.08674286
1114,2026-05-11 16:18:32.210473,3.7794278,3.4691656,3.1895764,1.181108,0.033292156,-0.5363397
1115,2026-05-11 16:18:32.213146,3.7794278,3.4691656,3.1895764,1.181108,0.033292156,-0.5363397
1116,2026-05-11 16:18:32.215823,3.7794278,3.4691656,3.1895764,1.181108,0.033292156,-0.5363397
1117,2026-05-11 16:18:32.218608,3.7534509,3.421663,3.0413358,2.9567406,-0.52274793,-1.2454015
1118,2026-05-11 16:18:32.221663,3.7534509,3.421663,3.0413358,2.9567406,-0.52274793,-1.2454015
1119,2026-05-11 16:18:32.224596,3.7534509,3.421663,3.0413358,2.9567406,-0.52274793,-1.2454015
1120,2026-05-11 16:18:32.227340,3.7534509,3.421663,3.0413358,2.9567406,-0.52274793,-1.2454015
1121,2026-05-11 16:18:32.230070,3.7534509,3.421663,3.0413358,2.9567406,-0.52274793,-1.2454015
1122,2026-05-11 16:18:32.232718,3.7534509,3.421663,3.0413358,2.9567406,-0.52274793,-1.2454015
1123,2026-05-11 16:18:32.235387,3.7534509,3.421663,3.0413358,2.9567406,-0.52274793,-1.2454015
1124,2026-05-11 16:18:32.238305,3.7534509,3.421663,3.0413358,2.9567406,-0.52274793,-1.2454015
1125,2026-05-11 16:18:32.241275,3.7534509,3.421663,3.0413358,2.9567406,-0.52274793,-1.2454015
1126,2026-05-11 16:18:32.243893,3.7534509,3.421663,3.0413358,2.9567406,-0.52274793,-1.2454015
1127,2026-05-11 16:18:32.246514,3.7534509,3.421663,3.0413358,2.9567406,-0.52274793,-1.2454015
1128,2026-05-11 16:18:32.249155,3.7534509,3.421663,3.0413358,2.9567406,-0.52274793,-1.2454015
1129,2026-05-11 16:18:32.251717,3.7534509,3.421663,3.0413358,2.9567406,-0.52274793,-1.2454015
1130,2026-05-11 16:18:32.254848,3.7534509,3.421663,3.0413358,4.3020186,-0.98792183,-1.8524488
1131,2026-05-11 16:18:32.257705,3.7568653,3.2917166,2.7742472,4.3020186,-0.98792183,-1.8524488
1132,2026-05-11 16:18:32.260349,3.7568653,3.2917166,2.7742472,4.3020186,-0.98792183,-1.8524488
1133,2026-05-11 16:18:32.262940,3.7568653,3.2917166,2.7742472,4.3020186,-0.98792183,-1.8524488
1134,2026-05-11 16:18:32.265497,3.7568653,3.2917166,2.7742472,4.3020186,-0.98792183,-1.8524488
1135,2026-05-11 16:18:32.268237,3.7568653,3.2917166,2.7742472,4.3020186,-0.98792183,-1.8524488
1136,2026-05-11 16:18:32.271127,3.7568653,3.2917166,2.7742472,4.3020186,-0.98792183,-1.8524488
1137,2026-05-11 16:18:32.274517,3.8352847,3.187015,2.4247756,4.3020186,-0.98792183,-1.8524488
1138,2026-05-11 16:18:32.277207,3.8352847,3.187015,2.4247756,4.3020186,-0.98792183,-1.8524488
1139,2026-05-11 16:18:32.279980,3.8352847,3.187015,2.4247756,4.3020186,-0.98792183,-1.8524488
1140,2026-05-11 16:18:32.282588,3.8352847,3.187015,2.4247756,4.3020186,-0.98792183,-1.8524488
1141,2026-05-11 16:18:32.285266,3.8352847,3.187015,2.4247756,4.3020186,-0.98792183,-1.8524488
1142,2026-05-11 16:18:32.287932,3.8352847,3.187015,2.4247756,4.3020186,-0.98792183,-1.8524488
1143,2026-05-11 16:18:32.291083,3.8352847,3.187015,2.4247756,4.3020186,-0.98792183,-1.8524488
1144,2026-05-11 16:18:32.293656,3.8352847,3.187015,2.4247756,4.3020186,-0.98792183,-1.8524488
1145,2026-05-11 16:18:32.296483,3.8352847,3.187015,2.4247756,4.3020186,-0.98792183,-1.8524488
1146,2026-05-11 16:18:32.299248,3.8352847,3.187015,2.4247756,4.8582115,-0.9958631,-2.3263276
1147,2026-05-11 16:18:32.301950,3.9298637,3.0430434,1.9295027,4.1022654,-0.3837761,-3.9613085
1148,2026-05-11 16:18:32.305096,3.9298637,3.0430434,1.9295027,4.1022654,-0.3837761,-3.9613085
1149,2026-05-11 16:18:32.307944,3.9298637,3.0430434,1.9295027,4.1022654,-0.3837761,-3.9613085
1150,2026-05-11 16:18:32.310556,3.9298637,3.0430434,1.9295027,4.1022654,-0.3837761,-3.9613085
1151,2026-05-11 16:18:32.313414,3.9298637,3.0430434,1.9295027,4.1022654,-0.3837761,-3.9613085
1152,2026-05-11 16:18:32.316066,3.9298637,3.0430434,1.9295027,4.1022654,-0.3837761,-3.9613085
1153,2026-05-11 16:18:32.318891,3.9298637,3.0430434,1.9295027,4.1022654,-0.3837761,-3.9613085
1154,2026-05-11 16:18:32.321762,3.9298637,3.0430434,1.9295027,4.1022654,-0.3837761,-3.9613085
1155,2026-05-11 16:18:32.324701,3.9298637,3.0430434,1.9295027,4.1022654,-0.3837761,-3.9613085
1156,2026-05-11 16:18:32.327370,3.9298637,3.0430434,1.9295027,4.1022654,-0.3837761,-3.9613085
1157,2026-05-11 16:18:32.329964,3.9298637,3.0430434,1.9295027,4.1022654,-0.3837761,-3.9613085
1158,2026-05-11 16:18:32.332804,3.9298637,3.0430434,1.9295027,4.1022654,-0.3837761,-3.9613085
1159,2026-05-11 16:18:32.335399,3.9298637,3.0430434,1.9295027,4.1022654,-0.3837761,-3.9613085
1160,2026-05-11 16:18:32.338288,3.9298637,3.0430434,1.9295027,4.1022654,-0.3837761,-3.9613085
1161,2026-05-11 16:18:32.341254,3.9298637,3.0430434,1.9295027,4.1022654,-0.3837761,-3.9613085
1162,2026-05-11 16:18:32.344009,3.709058,2.7826624,1.4756349,4.1022654,-0.3837761,-3.9613085
1163,2026-05-11 16:18:32.346703,3.709058,2.7826624,1.4756349,4.1022654,-0.3837761,-3.9613085
1164,2026-05-11 16:18:32.349322,3.709058,2.7826624,1.4756349,4.1022654,-0.3837761,-3.9613085
1165,2026-05-11 16:18:32.351908,3.709058,2.7826624,1.4756349,4.1022654,-0.3837761,-3.9613085
1166,2026-05-11 16:18:32.355176,3.709058,2.7826624,1.4756349,4.1022654,-0.3837761,-3.9613085
1167,2026-05-11 16:18:32.357912,3.709058,2.7826624,1.4756349,4.1022654,-0.3837761,-3.9613085
1168,2026-05-11 16:18:32.360533,3.709058,2.7826624,1.4756349,4.1022654,-0.3837761,-3.9613085
1169,2026-05-11 16:18:32.363171,3.709058,2.7826624,1.4756349,4.1022654,-0.3837761,-3.9613085
1170,2026-05-11 16:18:32.365929,3.709058,2.7826624,1.4756349,4.1022654,-0.3837761,-3.9613085
1171,2026-05-11 16:18:32.368689,3.709058,2.7826624,1.4756349,4.1022654,-0.3837761,-3.9613085
1172,2026-05-11 16:18:32.371540,3.709058,2.7826624,1.4756349,4.1022654,-0.3837761,-3.9613085
1173,2026-05-11 16:18:32.374244,3.709058,2.7826624,1.4756349,4.1022654,-0.3837761,-3.9613085
1174,2026-05-11 16:18:32.376871,3.709058,2.7826624,1.4756349,4.1022654,-0.3837761,-3.9613085
1175,2026-05-11 16:18:32.379506,3.709058,2.7826624,1.4756349,4.1022654,-0.3837761,-3.9613085
1176,2026-05-11 16:18:32.382312,3.709058,2.7826624,1.4756349,2.9964468,-0.08536842,-4.6350927
1177,2026-05-11 16:18:32.384994,3.709058,2.7826624,1.4756349,2.9964468,-0.08536842,-4.6350927
1178,2026-05-11 16:18:32.387753,3.2339082,2.5165493,1.2412919,2.9964468,-0.08536842,-4.6350927
1179,2026-05-11 16:18:32.390707,3.2339082,2.5165493,1.2412919,2.9964468,-0.08536842,-4.6350927
1180,2026-05-11 16:18:32.393513,3.2339082,2.5165493,1.2412919,2.9964468,-0.08536842,-4.6350927
1181,2026-05-11 16:18:32.396134,3.2339082,2.5165493,1.2412919,2.9964468,-0.08536842,-4.6350927
1182,2026-05-11 16:18:32.398971,3.2339082,2.5165493,1.2412919,2.9964468,-0.08536842,-4.6350927
1183,2026-05-11 16:18:32.401918,3.2339082,2.5165493,1.2412919,2.9964468,-0.08536842,-4.6350927
1184,2026-05-11 16:18:32.405096,3.2339082,2.5165493,1.2412919,2.9964468,-0.08536842,-4.6350927
1185,2026-05-11 16:18:32.407956,3.2339082,2.5165493,1.2412919,2.9964468,-0.08536842,-4.6350927
1186,2026-05-11 16:18:32.410772,2.596127,1.9665782,1.5824704,0.97524637,0.52412236,-5.4492235
1187,2026-05-11 16:18:32.413394,2.596127,1.9665782,1.5824704,0.97524637,0.52412236,-5.4492235
1188,2026-05-11 16:18:32.416222,2.596127,1.9665782,1.5824704,0.97524637,0.52412236,-5.4492235
1189,2026-05-11 16:18:32.418967,2.596127,1.9665782,1.5824704,0.8168796,0.6753115,-5.6170588
1190,2026-05-11 16:18:32.422015,2.596127,1.9665782,1.5824704,0.8168796,0.6753115,-5.6170588
1191,2026-05-11 16:18:32.424789,2.596127,1.9665782,1.5824704,0.8168796,0.6753115,-5.6170588
1192,2026-05-11 16:18:32.427608,2.415202,1.7464434,1.8158376,0.8168796,0.6753115,-5.6170588
1193,2026-05-11 16:18:32.430386,2.415202,1.7464434,1.8158376,0.8168796,0.6753115,-5.6170588
1194,2026-05-11 16:18:32.433201,2.415202,1.7464434,1.8158376,0.8168796,0.6753115,-5.6170588
1195,2026-05-11 16:18:32.435831,2.415202,1.7464434,1.8158376,0.8168796,0.6753115,-5.6170588
1196,2026-05-11 16:18:32.439025,2.415202,1.7464434,1.8158376,0.8168796,0.6753115,-5.6170588
1197,2026-05-11 16:18:32.442007,2.2430577,1.4462429,2.0368261,0.9465357,0.75976366,-5.8998895
1198,2026-05-11 16:18:32.444708,2.1315267,1.2115341,2.210007,1.4442382,0.6389651,-6.1769166
1199,2026-05-11 16:18:32.447283,2.1315267,1.2115341,2.210007,1.4442382,0.6389651,-6.1769166
1200,2026-05-11 16:18:32.450035,2.1315267,1.2115341,2.210007,1.4442382,0.6389651,-6.1769166
1201,2026-05-11 16:18:32.452767,1.9659684,0.8813319,2.3545277,2.010663,0.6478226,-6.3685756
1202,2026-05-11 16:18:32.455911,1.8054101,0.5336287,2.425995,2.010663,0.6478226,-6.3685756
1203,2026-05-11 16:18:32.458823,1.8054101,0.5336287,2.425995,2.010663,0.6478226,-6.3685756
1204,2026-05-11 16:18:32.461623,1.8054101,0.5336287,2.425995,2.010663,0.6478226,-6.3685756
1205,2026-05-11 16:18:32.464246,1.8054101,0.5336287,2.425995,2.010663,0.6478226,-6.3685756
1206,2026-05-11 16:18:32.467048,1.8054101,0.5336287,2.425995,2.010663,0.6478226,-6.3685756
1207,2026-05-11 16:18:32.469756,1.7666274,0.20714624,2.3898954,2.8237245,0.73471814,-6.4597473
1208,2026-05-11 16:18:32.472969,1.7666274,0.20714624,2.3898954,2.8237245,0.73471814,-6.4597473
1209,2026-05-11 16:18:32.475861,1.7666274,0.20714624,2.3898954,2.8237245,0.73471814,-6.4597473
1210,2026-05-11 16:18:32.478676,1.7666274,0.20714624,2.3898954,3.7244453,0.8622363,-6.443254
1211,2026-05-11 16:18:32.481452,1.7666274,0.20714624,2.3898954,3.7244453,0.8622363,-6.443254
1212,2026-05-11 16:18:32.484283,1.7666274,0.20714624,2.3898954,3.7244453,0.8622363,-6.443254
1213,2026-05-11 16:18:32.486972,1.7666274,0.20714624,2.3898954,3.7244453,0.8622363,-6.443254
1214,2026-05-11 16:18:32.489915,1.9266369,-0.0035367915,2.2614734,3.7244453,0.8622363,-6.443254
1215,2026-05-11 16:18:32.492604,1.9266369,-0.0035367915,2.2614734,3.7244453,0.8622363,-6.443254
1216,2026-05-11 16:18:32.495360,1.9266369,-0.0035367915,2.2614734,3.7244453,0.8622363,-6.443254
1217,2026-05-11 16:18:32.497969,1.9266369,-0.0035367915,2.2614734,3.7244453,0.8622363,-6.443254
1218,2026-05-11 16:18:32.500736,1.9266369,-0.0035367915,2.2614734,3.7244453,0.8622363,-6.443254
1219,2026-05-11 16:18:32.503336,1.9266369,-0.0035367915,2.2614734,3.7244453,0.8622363,-6.443254
1220,2026-05-11 16:18:32.506490,1.9266369,-0.0035367915,2.2614734,4.3640213,0.9034697,-6.4331746
1221,2026-05-11 16:18:32.509210,1.9266369,-0.0035367915,2.2614734,4.3640213,0.9034697,-6.4331746
1222,2026-05-11 16:18:32.511803,1.9266369,-0.0035367915,2.2614734,4.3640213,0.9034697,-6.4331746
1223,2026-05-11 16:18:32.514417,1.9266369,-0.0035367915,2.2614734,4.3640213,0.9034697,-6.4331746
1224,2026-05-11 16:18:32.517003,1.9266369,-0.0035367915,2.2614734,4.3640213,0.9034697,-6.4331746
1225,2026-05-11 16:18:32.519569,1.9266369,-0.0035367915,2.2614734,4.3640213,0.9034697,-6.4331746
1226,2026-05-11 16:18:32.522689,1.9266369,-0.0035367915,2.2614734,4.3640213,0.9034697,-6.4331746
1227,2026-05-11 16:18:32.525588,1.9389546,-0.5605205,1.8919396,5.4519725,0.8378017,-6.7401342
1228,2026-05-11 16:18:32.528322,1.9389546,-0.5605205,1.8919396,5.4519725,0.8378017,-6.7401342
1229,2026-05-11 16:18:32.531115,1.9389546,-0.5605205,1.8919396,5.4519725,0.8378017,-6.7401342
1230,2026-05-11 16:18:32.533710,1.9389546,-0.5605205,1.8919396,5.4519725,0.8378017,-6.7401342
1231,2026-05-11 16:18:32.536314,1.9389546,-0.5605205,1.8919396,5.4519725,0.8378017,-6.7401342
1232,2026-05-11 16:18:32.539272,1.9389546,-0.5605205,1.8919396,5.4519725,0.8378017,-6.7401342
1233,2026-05-11 16:18:32.542021,1.9389546,-0.5605205,1.8919396,5.4519725,0.8378017,-6.7401342
1234,2026-05-11 16:18:32.544641,1.9389546,-0.5605205,1.8919396,5.4519725,0.8378017,-6.7401342
1235,2026-05-11 16:18:32.547234,1.9389546,-0.5605205,1.8919396,5.4519725,0.8378017,-6.7401342
1236,2026-05-11 16:18:32.550051,1.9286491,-0.6866255,1.7377235,5.6521835,0.71883565,-6.7833533
1237,2026-05-11 16:18:32.552630,1.9286491,-0.6866255,1.7377235,5.6521835,0.71883565,-6.7833533
1238,2026-05-11 16:18:32.555806,1.9286491,-0.6866255,1.7377235,5.6521835,0.71883565,-6.7833533
1239,2026-05-11 16:18:32.558666,2.0362163,-0.76541054,1.6605237,5.727778,0.44944412,-6.894836
1240,2026-05-11 16:18:32.561471,2.0362163,-0.76541054,1.6605237,5.727778,0.44944412,-6.894836
1241,2026-05-11 16:18:32.564082,2.0362163,-0.76541054,1.6605237,5.727778,0.44944412,-6.894836
1242,2026-05-11 16:18:32.566882,2.0362163,-0.76541054,1.6605237,5.727778,0.44944412,-6.894836
1243,2026-05-11 16:18:32.569785,1.9902381,-0.9185292,1.7339426,5.742133,-0.017562376,-7.1254377
1244,2026-05-11 16:18:32.572852,1.9902381,-0.9185292,1.7339426,5.742133,-0.017562376,-7.1254377
1245,2026-05-11 16:18:32.575484,1.9902381,-0.9185292,1.7339426,5.742133,-0.017562376,-7.1254377
1246,2026-05-11 16:18:32.578262,1.9902381,-0.9185292,1.7339426,5.6757016,-0.1386664,-7.2094316
1247,2026-05-11 16:18:32.580879,1.9902381,-0.9185292,1.7339426,5.6757016,-0.1386664,-7.2094316
1248,2026-05-11 16:18:32.583582,1.9902381,-0.9185292,1.7339426,5.6757016,-0.1386664,-7.2094316
1249,2026-05-11 16:18:32.586318,1.9902381,-0.9185292,1.7339426,5.6757016,-0.1386664,-7.2094316
1250,2026-05-11 16:18:32.589180,1.9902381,-0.9185292,1.7339426,5.6757016,-0.1386664,-7.2094316
1251,2026-05-11 16:18:32.591936,1.9902381,-0.9185292,1.7339426,5.6757016,-0.1386664,-7.2094316
1252,2026-05-11 16:18:32.594507,1.9902381,-0.9185292,1.7339426,5.6757016,-0.1386664,-7.2094316
1253,2026-05-11 16:18:32.597108,1.9902381,-0.9185292,1.7339426,5.6757016,-0.1386664,-7.2094316
1254,2026-05-11 16:18:32.599797,1.9902381,-0.9185292,1.7339426,5.6757016,-0.1386664,-7.2094316
1255,2026-05-11 16:18:32.602360,1.9902381,-0.9185292,1.7339426,5.6757016,-0.1386664,-7.2094316
1256,2026-05-11 16:18:32.605500,1.9902381,-0.9185292,1.7339426,5.6757016,-0.1386664,-7.2094316
1257,2026-05-11 16:18:32.633452,2.157626,-1.1703732,1.7801647,5.3104043,1.7592919,-6.5964284
1258,2026-05-11 16:18:32.637517,1.8587061,-1.3603842,1.7433944,5.3104043,1.7592919,-6.5964284
1259,2026-05-11 16:18:32.646555,1.8587061,-1.3603842,1.7433944,5.3104043,1.7592919,-6.5964284
1260,2026-05-11 16:18:32.649561,1.8587061,-1.3603842,1.7433944,5.907067,1.568702,-6.9122458
1261,2026-05-11 16:18:32.652159,1.8587061,-1.3603842,1.7433944,5.907067,1.568702,-6.9122458
1262,2026-05-11 16:18:32.655099,1.8587061,-1.3603842,1.7433944,5.907067,1.568702,-6.9122458
1263,2026-05-11 16:18:32.657986,1.5816166,-1.5694817,1.5538102,6.4379086,1.1404854,-6.9982247
1264,2026-05-11 16:18:32.660854,1.5816166,-1.5694817,1.5538102,6.4379086,1.1404854,-6.9982247
1265,2026-05-11 16:18:32.663701,1.2202542,-1.8837684,0.8816368,7.2934256,0.28069258,-7.0951996
1266,2026-05-11 16:18:32.666399,1.2202542,-1.8837684,0.8816368,7.2934256,0.28069258,-7.0951996
1267,2026-05-11 16:18:32.669019,1.2202542,-1.8837684,0.8816368,7.2934256,0.28069258,-7.0951996
1268,2026-05-11 16:18:32.672312,1.2202542,-1.8837684,0.8816368,7.2934256,0.28069258,-7.0951996
1269,2026-05-11 16:18:32.675079,1.2202542,-1.8837684,0.8816368,7.2934256,0.28069258,-7.0951996
1270,2026-05-11 16:18:32.677708,1.2202542,-1.8837684,0.8816368,7.2934256,0.28069258,-7.0951996
1271,2026-05-11 16:18:32.680558,0.9449942,-2.1377468,0.29849303,7.332979,0.061850104,-7.091229
1272,2026-05-11 16:18:32.683388,0.9449942,-2.1377468,0.29849303,7.332979,0.061850104,-7.091229
1273,2026-05-11 16:18:32.686069,0.9449942,-2.1377468,0.29849303,7.332979,0.061850104,-7.091229
1274,2026-05-11 16:18:32.689160,0.9449942,-2.1377468,0.29849303,7.332979,0.061850104,-7.091229
1275,2026-05-11 16:18:32.692053,0.9449942,-2.1377468,0.29849303,7.332979,0.061850104,-7.091229
1276,2026-05-11 16:18:32.694705,0.9449942,-2.1377468,0.29849303,7.332979,0.061850104,-7.091229
1277,2026-05-11 16:18:32.697335,0.9449942,-2.1377468,0.29849303,7.332979,0.061850104,-7.091229
1278,2026-05-11 16:18:32.699949,0.9449942,-2.1377468,0.29849303,7.332979,0.061850104,-7.091229
1279,2026-05-11 16:18:32.702755,0.9449942,-2.1377468,0.29849303,7.332979,0.061850104,-7.091229
1280,2026-05-11 16:18:32.705802,0.9449942,-2.1377468,0.29849303,7.332979,0.061850104,-7.091229
1281,2026-05-11 16:18:32.708522,0.9449942,-2.1377468,0.29849303,7.332979,0.061850104,-7.091229
