id,timestamp,acc_x,acc_y,acc_z,gyro_x,gyro_y,gyro_z
1,2026-05-11 16:10:22.171321,0.6647339,0.33648303,2.134088,2.0755675,3.6749654,-1.4498887
2,2026-05-11 16:10:22.181492,0.6647339,0.33648303,2.134088,2.0755675,3.6749654,-1.4498887
3,2026-05-11 16:10:22.184563,0.6647339,0.33648303,2.134088,2.0755675,3.6749654,-1.4498887
4,2026-05-11 16:10:22.187390,0.6647339,0.33648303,2.134088,2.0755675,3.6749654,-1.4498887
5,2026-05-11 16:10:22.190078,0.6647339,0.33648303,2.134088,2.0755675,3.6749654,-1.4498887
6,2026-05-11 16:10:22.192783,0.6647339,0.33648303,2.134088,2.0755675,3.6749654,-1.4498887
7,2026-05-11 16:10:22.195656,0.6647339,0.33648303,2.134088,2.0755675,3.6749654,-1.4498887
8,2026-05-11 16:10:22.198583,0.55838627,0.29056573,2.1203678,2.0755675,3.6749654,-1.4498887
9,2026-05-11 16:10:22.201948,0.55838627,0.29056573,2.1203678,2.0755675,3.6749654,-1.4498887
10,2026-05-11 16:10:22.204827,0.55838627,0.29056573,2.1203678,2.0755675,3.6749654,-1.4498887
11,2026-05-11 16:10:22.207742,0.55838627,0.29056573,2.1203678,2.4987442,3.583641,-1.529912
12,2026-05-11 16:10:22.210482,0.55838627,0.29056573,2.1203678,2.4987442,3.583641,-1.529912
13,2026-05-11 16:10:22.213155,0.55838627,0.29056573,2.1203678,2.4987442,3.583641,-1.529912
14,2026-05-11 16:10:22.215739,0.55838627,0.29056573,2.1203678,2.4987442,3.583641,-1.529912
15,2026-05-11 16:10:22.218923,0.55838627,0.29056573,2.1203678,2.4987442,3.583641,-1.529912
16,2026-05-11 16:10:22.221622,0.55838627,0.29056573,2.1203678,2.4987442,3.583641,-1.529912
17,2026-05-11 16:10:22.224337,0.55838627,0.29056573,2.1203678,2.4987442,3.583641,-1.529912
18,2026-05-11 16:10:22.226919,0.55838627,0.29056573,2.1203678,2.4987442,3.583641,-1.529912
19,2026-05-11 16:10:22.229721,0.55838627,0.29056573,2.1203678,2.4987442,3.583641,-1.529912
20,2026-05-11 16:10:22.232318,0.55838627,0.29056573,2.1203678,2.4987442,3.583641,-1.529912
21,2026-05-11 16:10:22.236527,0.55838627,0.29056573,2.1203678,2.4987442,3.583641,-1.529912
22,2026-05-11 16:10:22.239327,0.55838627,0.29056573,2.1203678,2.4987442,3.583641,-1.529912
23,2026-05-11 16:10:22.241978,0.55838627,0.29056573,2.1203678,2.4987442,3.583641,-1.529912
24,2026-05-11 16:10:22.244835,0.55838627,0.29056573,2.1203678,2.4987442,3.583641,-1.529912
25,2026-05-11 16:10:22.247584,0.55838627,0.29056573,2.1203678,2.4987442,3.583641,-1.529912
26,2026-05-11 16:10:22.250929,0.55838627,0.29056573,2.1203678,2.4987442,3.583641,-1.529912
27,2026-05-11 16:10:22.253717,0.55838627,0.29056573,2.1203678,2.4987442,3.583641,-1.529912
28,2026-05-11 16:10:22.256296,0.55838627,0.29056573,2.1203678,2.4987442,3.583641,-1.529912
29,2026-05-11 16:10:22.259021,0.55838627,0.29056573,2.1203678,2.4987442,3.583641,-1.529912
30,2026-05-11 16:10:22.261582,0.55838627,0.29056573,2.1203678,2.4987442,3.583641,-1.529912
31,2026-05-11 16:10:22.264416,0.55838627,0.29056573,2.1203678,2.4987442,3.583641,-1.529912
32,2026-05-11 16:10:22.267445,0.55838627,0.29056573,2.1203678,2.4987442,3.583641,-1.529912
33,2026-05-11 16:10:22.270146,0.55838627,0.29056573,2.1203678,2.4987442,3.583641,-1.529912
34,2026-05-11 16:10:22.272725,0.55838627,0.29056573,2.1203678,2.4987442,3.583641,-1.529912
35,2026-05-11 16:10:22.275323,0.55838627,0.29056573,2.1203678,2.4987442,3.583641,-1.529912
36,2026-05-11 16:10:22.278125,0.55838627,0.29056573,2.1203678,2.4987442,3.583641,-1.529912
37,2026-05-11 16:10:22.280739,0.55838627,0.29056573,2.1203678,2.4987442,3.583641,-1.529912
38,2026-05-11 16:10:22.284180,0.55838627,0.29056573,2.1203678,2.4987442,3.583641,-1.529912
39,2026-05-11 16:10:22.287127,0.55838627,0.29056573,2.1203678,2.4987442,3.583641,-1.529912
40,2026-05-11 16:10:22.289777,0.55838627,0.29056573,2.1203678,2.4987442,3.583641,-1.529912
41,2026-05-11 16:10:22.292349,0.55838627,0.29056573,2.1203678,2.4987442,3.583641,-1.529912
42,2026-05-11 16:10:22.295303,0.55838627,0.29056573,2.1203678,2.4987442,3.583641,-1.529912
43,2026-05-11 16:10:22.298116,0.55838627,0.29056573,2.1203678,2.4987442,3.583641,-1.529912
44,2026-05-11 16:10:22.301121,0.55838627,0.29056573,2.1203678,2.4987442,3.583641,-1.529912
45,2026-05-11 16:10:22.303771,0.55838627,0.29056573,2.1203678,2.4987442,3.583641,-1.529912
46,2026-05-11 16:10:22.306532,0.55838627,0.29056573,2.1203678,2.4987442,3.583641,-1.529912
47,2026-05-11 16:10:22.309115,0.55838627,0.29056573,2.1203678,2.4987442,3.583641,-1.529912
48,2026-05-11 16:10:22.311685,0.55838627,0.29056573,2.1203678,2.4987442,3.583641,-1.529912
49,2026-05-11 16:10:22.314217,0.55838627,0.29056573,2.1203678,2.4987442,3.583641,-1.529912
50,2026-05-11 16:10:22.317061,0.55838627,0.29056573,2.1203678,2.4987442,3.583641,-1.529912
51,2026-05-11 16:10:22.319936,0.55838627,0.29056573,2.1203678,2.4987442,3.583641,-1.529912
52,2026-05-11 16:10:22.322523,0.55838627,0.29056573,2.1203678,2.4987442,3.583641,-1.529912
53,2026-05-11 16:10:22.325075,0.55838627,0.29056573,2.1203678,2.4987442,3.583641,-1.529912
54,2026-05-11 16:10:22.327802,0.55838627,0.29056573,2.1203678,2.4987442,3.583641,-1.529912
55,2026-05-11 16:10:22.330363,0.55838627,0.29056573,2.1203678,2.4987442,3.583641,-1.529912
56,2026-05-11 16:10:22.333362,0.55838627,0.29056573,2.1203678,2.4987442,3.583641,-1.529912
57,2026-05-11 16:10:22.336228,0.55838627,0.29056573,2.1203678,2.4987442,3.583641,-1.529912
58,2026-05-11 16:10:22.338819,0.55838627,0.29056573,2.1203678,2.4987442,3.583641,-1.529912
59,2026-05-11 16:10:22.341433,0.550215,0.22983049,2.0773163,2.4987442,3.583641,-1.529912
60,2026-05-11 16:10:22.344213,0.550215,0.22983049,2.0773163,2.4987442,3.583641,-1.529912
61,2026-05-11 16:10:22.346807,0.550215,0.22983049,2.0773163,2.4987442,3.583641,-1.529912
62,2026-05-11 16:10:22.349813,0.550215,0.22983049,2.0773163,2.4987442,3.583641,-1.529912
63,2026-05-11 16:10:22.352924,0.550215,0.22983049,2.0773163,2.4987442,3.583641,-1.529912
64,2026-05-11 16:10:22.355564,0.550215,0.22983049,2.0773163,2.4987442,3.583641,-1.529912
65,2026-05-11 16:10:22.358115,0.550215,0.22983049,2.0773163,2.4987442,3.583641,-1.529912
66,2026-05-11 16:10:22.360943,0.550215,0.22983049,2.0773163,2.4987442,3.583641,-1.529912
67,2026-05-11 16:10:22.363556,0.550215,0.22983049,2.0773163,2.4987442,3.583641,-1.529912
68,2026-05-11 16:10:22.366197,0.550215,0.22983049,2.0773163,2.4987442,3.583641,-1.529912
69,2026-05-11 16:10:22.369590,0.550215,0.22983049,2.0773163,2.4987442,3.583641,-1.529912
70,2026-05-11 16:10:22.372282,0.550215,0.22983049,2.0773163,2.4987442,3.583641,-1.529912
71,2026-05-11 16:10:22.374859,0.550215,0.22983049,2.0773163,2.4987442,3.583641,-1.529912
72,2026-05-11 16:10:22.377440,0.550215,0.22983049,2.0773163,2.4987442,3.583641,-1.529912
73,2026-05-11 16:10:22.380202,0.550215,0.22983049,2.0773163,2.4987442,3.583641,-1.529912
74,2026-05-11 16:10:22.383511,0.550215,0.22983049,2.0773163,2.4987442,3.583641,-1.529912
75,2026-05-11 16:10:22.386462,0.550215,0.22983049,2.0773163,2.4987442,3.583641,-1.529912
76,2026-05-11 16:10:22.389222,0.550215,0.22983049,2.0773163,2.4987442,3.583641,-1.529912
77,2026-05-11 16:10:22.391950,0.550215,0.22983049,2.0773163,2.4987442,3.583641,-1.529912
78,2026-05-11 16:10:22.394542,0.550215,0.22983049,2.0773163,2.4987442,3.583641,-1.529912
79,2026-05-11 16:10:22.397245,0.550215,0.22983049,2.0773163,2.4987442,3.583641,-1.529912
80,2026-05-11 16:10:22.400193,0.550215,0.22983049,2.0773163,2.4987442,3.583641,-1.529912
81,2026-05-11 16:10:22.403347,0.550215,0.22983049,2.0773163,2.4987442,3.583641,-1.529912
82,2026-05-11 16:10:22.405940,0.550215,0.22983049,2.0773163,2.4987442,3.583641,-1.529912
83,2026-05-11 16:10:22.408789,0.550215,0.22983049,2.0773163,3.2511775,3.4715471,-1.4764613
84,2026-05-11 16:10:22.411464,0.550215,0.22983049,2.0773163,3.2511775,3.4715471,-1.4764613
85,2026-05-11 16:10:22.414126,0.550215,0.22983049,2.0773163,3.2511775,3.4715471,-1.4764613
86,2026-05-11 16:10:22.417260,0.550215,0.22983049,2.0773163,3.2511775,3.4715471,-1.4764613
87,2026-05-11 16:10:22.420049,0.550215,0.22983049,2.0773163,3.2511775,3.4715471,-1.4764613
88,2026-05-11 16:10:22.422630,0.550215,0.22983049,2.0773163,3.2511775,3.4715471,-1.4764613
89,2026-05-11 16:10:22.425406,0.550215,0.22983049,2.0773163,3.2511775,3.4715471,-1.4764613
90,2026-05-11 16:10:22.428089,0.550215,0.22983049,2.0773163,3.2511775,3.4715471,-1.4764613
91,2026-05-11 16:10:22.430835,0.550215,0.22983049,2.0773163,3.2511775,3.4715471,-1.4764613
92,2026-05-11 16:10:22.433819,0.550215,0.22983049,2.0773163,3.2511775,3.4715471,-1.4764613
93,2026-05-11 16:10:22.436599,0.550215,0.22983049,2.0773163,3.2511775,3.4715471,-1.4764613
94,2026-05-11 16:10:22.439271,0.550215,0.22983049,2.0773163,3.2511775,3.4715471,-1.4764613
95,2026-05-11 16:10:22.441925,0.550215,0.22983049,2.0773163,3.2511775,3.4715471,-1.4764613
96,2026-05-11 16:10:22.444539,0.550215,0.22983049,2.0773163,3.2511775,3.4715471,-1.4764613
97,2026-05-11 16:10:22.447081,0.550215,0.22983049,2.0773163,3.2511775,3.4715471,-1.4764613
98,2026-05-11 16:10:22.450077,0.550215,0.22983049,2.0773163,3.2511775,3.4715471,-1.4764613
99,2026-05-11 16:10:22.452829,0.550215,0.22983049,2.0773163,3.2511775,3.4715471,-1.4764613
100,2026-05-11 16:10:22.455637,0.550215,0.22983049,2.0773163,3.2511775,3.4715471,-1.4764613
101,2026-05-11 16:10:22.458314,0.550215,0.22983049,2.0773163,3.2511775,3.4715471,-1.4764613
102,2026-05-11 16:10:22.460964,0.550215,0.22983049,2.0773163,3.2511775,3.4715471,-1.4764613
103,2026-05-11 16:10:22.463653,0.550215,0.22983049,2.0773163,3.2511775,3.4715471,-1.4764613
104,2026-05-11 16:10:22.466703,0.550215,0.22983049,2.0773163,3.2511775,3.4715471,-1.4764613
105,2026-05-11 16:10:22.469608,0.550215,0.22983049,2.0773163,3.2511775,3.4715471,-1.4764613
106,2026-05-11 16:10:22.472193,0.550215,0.22983049,2.0773163,3.2511775,3.4715471,-1.4764613
107,2026-05-11 16:10:22.474835,0.550215,0.22983049,2.0773163,3.2511775,3.4715471,-1.4764613
108,2026-05-11 16:10:22.477405,0.550215,0.22983049,2.0773163,3.2511775,3.4715471,-1.4764613
109,2026-05-11 16:10:22.480007,0.550215,0.22983049,2.0773163,3.2511775,3.4715471,-1.4764613
110,2026-05-11 16:10:22.482697,0.550215,0.22983049,2.0773163,3.2511775,3.4715471,-1.4764613
111,2026-05-11 16:10:22.485951,0.550215,0.22983049,2.0773163,3.2511775,3.4715471,-1.4764613
112,2026-05-11 16:10:22.488592,0.550215,0.22983049,2.0773163,3.2511775,3.4715471,-1.4764613
113,2026-05-11 16:10:22.491189,0.550215,0.22983049,2.0773163,3.2511775,3.4715471,-1.4764613
114,2026-05-11 16:10:22.493887,0.59180284,0.2374529,2.0526807,3.2511775,3.4715471,-1.4764613
115,2026-05-11 16:10:22.496454,0.59180284,0.2374529,2.0526807,3.2511775,3.4715471,-1.4764613
116,2026-05-11 16:10:22.499797,0.59180284,0.2374529,2.0526807,3.6575556,3.431841,-1.5057828
117,2026-05-11 16:10:22.503925,0.59180284,0.2374529,2.0526807,3.6575556,3.431841,-1.5057828
118,2026-05-11 16:10:22.506797,0.59180284,0.2374529,2.0526807,3.6575556,3.431841,-1.5057828
119,2026-05-11 16:10:22.509758,0.59180284,0.2374529,2.0526807,3.6575556,3.431841,-1.5057828
120,2026-05-11 16:10:22.512555,0.59180284,0.2374529,2.0526807,3.6575556,3.431841,-1.5057828
121,2026-05-11 16:10:22.515634,0.4533801,0.14506944,1.5528345,4.1013494,3.947106,-1.4784466
122,2026-05-11 16:10:22.518978,0.4533801,0.14506944,1.5528345,4.1013494,3.947106,-1.4784466
123,2026-05-11 16:10:22.521955,0.4533801,0.14506944,1.5528345,4.1013494,3.947106,-1.4784466
124,2026-05-11 16:10:22.524597,0.4533801,0.14506944,1.5528345,4.1013494,3.947106,-1.4784466
125,2026-05-11 16:10:22.527186,0.4533801,0.14506944,1.5528345,4.1013494,3.947106,-1.4784466
126,2026-05-11 16:10:22.529842,0.4533801,0.14506944,1.5528345,4.1013494,3.947106,-1.4784466
127,2026-05-11 16:10:22.532412,0.4533801,0.14506944,1.5528345,4.1013494,3.947106,-1.4784466
128,2026-05-11 16:10:22.535734,0.4533801,0.14506944,1.5528345,4.1013494,3.947106,-1.4784466
129,2026-05-11 16:10:22.538481,0.4533801,0.14506944,1.5528345,4.1013494,3.947106,-1.4784466
130,2026-05-11 16:10:22.541280,0.4533801,0.14506944,1.5528345,4.1013494,3.947106,-1.4784466
131,2026-05-11 16:10:22.543910,0.3758756,0.12848312,1.3270897,4.1013494,3.947106,-1.4784466
132,2026-05-11 16:10:22.546665,0.3758756,0.12848312,1.3270897,4.1013494,3.947106,-1.4784466
133,2026-05-11 16:10:22.549597,0.3758756,0.12848312,1.3270897,4.1013494,3.947106,-1.4784466
134,2026-05-11 16:10:22.553021,0.3758756,0.12848312,1.3270897,4.1013494,3.947106,-1.4784466
135,2026-05-11 16:10:22.556087,0.3758756,0.12848312,1.3270897,4.1013494,3.947106,-1.4784466
136,2026-05-11 16:10:22.558898,0.3758756,0.12848312,1.3270897,4.1013494,3.947106,-1.4784466
137,2026-05-11 16:10:22.561619,0.3758756,0.12848312,1.3270897,4.1013494,3.947106,-1.4784466
138,2026-05-11 16:10:22.564346,0.3758756,0.12848312,1.3270897,4.1013494,3.947106,-1.4784466
139,2026-05-11 16:10:22.569424,0.3758756,0.12848312,1.3270897,4.1013494,3.947106,-1.4784466
140,2026-05-11 16:10:22.573111,0.3758756,0.12848312,1.3270897,4.1013494,3.947106,-1.4784466
141,2026-05-11 16:10:22.576975,0.3758756,0.12848312,1.3270897,4.1013494,3.947106,-1.4784466
142,2026-05-11 16:10:22.579768,0.3758756,0.12848312,1.3270897,4.1013494,3.947106,-1.4784466
143,2026-05-11 16:10:22.582493,0.3758756,0.12848312,1.3270897,4.1013494,3.947106,-1.4784466
144,2026-05-11 16:10:22.585851,0.3758756,0.12848312,1.3270897,4.1013494,3.947106,-1.4784466
145,2026-05-11 16:10:22.588716,0.3758756,0.12848312,1.3270897,4.1013494,3.947106,-1.4784466
146,2026-05-11 16:10:22.591403,0.3758756,0.12848312,1.3270897,4.1013494,3.947106,-1.4784466
147,2026-05-11 16:10:22.593988,0.3758756,0.12848312,1.3270897,4.1013494,3.947106,-1.4784466
148,2026-05-11 16:10:22.596688,0.3758756,0.12848312,1.3270897,4.1013494,3.947106,-1.4784466
149,2026-05-11 16:10:22.599689,0.36142352,0.11378712,1.2247665,3.9600866,4.1874814,-1.3901765
150,2026-05-11 16:10:22.602630,0.36142352,0.11378712,1.2247665,3.9600866,4.1874814,-1.3901765
151,2026-05-11 16:10:22.605262,0.36142352,0.11378712,1.2247665,3.9600866,4.1874814,-1.3901765
152,2026-05-11 16:10:22.607807,0.36142352,0.11378712,1.2247665,3.9600866,4.1874814,-1.3901765
153,2026-05-11 16:10:22.610400,0.36142352,0.11378712,1.2247665,3.9600866,4.1874814,-1.3901765
154,2026-05-11 16:10:22.612935,0.36142352,0.11378712,1.2247665,3.9600866,4.1874814,-1.3901765
155,2026-05-11 16:10:22.615511,0.36142352,0.11378712,1.2247665,3.9600866,4.1874814,-1.3901765
156,2026-05-11 16:10:22.618602,0.36142352,0.11378712,1.2247665,3.9600866,4.1874814,-1.3901765
157,2026-05-11 16:10:22.621611,0.36142352,0.11378712,1.2247665,3.9600866,4.1874814,-1.3901765
158,2026-05-11 16:10:22.624202,0.36142352,0.11378712,1.2247665,3.9600866,4.1874814,-1.3901765
159,2026-05-11 16:10:22.626795,0.36142352,0.11378712,1.2247665,3.9600866,4.1874814,-1.3901765
160,2026-05-11 16:10:22.629659,0.36142352,0.11378712,1.2247665,3.9600866,4.1874814,-1.3901765
161,2026-05-11 16:10:22.632271,0.36142352,0.11378712,1.2247665,3.9600866,4.1874814,-1.3901765
162,2026-05-11 16:10:22.635369,0.36142352,0.11378712,1.2247665,3.9600866,4.1874814,-1.3901765
163,2026-05-11 16:10:22.638047,0.36142352,0.11378712,1.2247665,3.9600866,4.1874814,-1.3901765
164,2026-05-11 16:10:22.640601,0.36142352,0.11378712,1.2247665,3.9600866,4.1874814,-1.3901765
165,2026-05-11 16:10:22.643191,0.36142352,0.11378712,1.2247665,3.9600866,4.1874814,-1.3901765
166,2026-05-11 16:10:22.645999,0.36142352,0.11378712,1.2247665,3.9600866,4.1874814,-1.3901765
167,2026-05-11 16:10:22.648770,0.36142352,0.11378712,1.2247665,3.9600866,4.1874814,-1.3901765
168,2026-05-11 16:10:22.651666,0.36142352,0.11378712,1.2247665,3.9600866,4.1874814,-1.3901765
169,2026-05-11 16:10:22.654287,0.36142352,0.11378712,1.2247665,3.9600866,4.1874814,-1.3901765
170,2026-05-11 16:10:22.656962,0.36142352,0.11378712,1.2247665,3.9600866,4.1874814,-1.3901765
171,2026-05-11 16:10:22.659543,0.36142352,0.11378712,1.2247665,3.9600866,4.1874814,-1.3901765
172,2026-05-11 16:10:22.662124,0.36142352,0.11378712,1.2247665,3.9600866,4.1874814,-1.3901765
173,2026-05-11 16:10:22.664653,0.36142352,0.11378712,1.2247665,3.9600866,4.1874814,-1.3901765
174,2026-05-11 16:10:22.667752,0.36142352,0.11378712,1.2247665,3.9600866,4.1874814,-1.3901765
175,2026-05-11 16:10:22.670419,0.36142352,0.11378712,1.2247665,3.9600866,4.1874814,-1.3901765
176,2026-05-11 16:10:22.672989,0.36142352,0.11378712,1.2247665,3.9600866,4.1874814,-1.3901765
177,2026-05-11 16:10:22.675844,0.36142352,0.11378712,1.2247665,3.9600866,4.1874814,-1.3901765
178,2026-05-11 16:10:22.678470,0.36142352,0.11378712,1.2247665,3.9600866,4.1874814,-1.3901765
179,2026-05-11 16:10:22.681092,0.36142352,0.11378712,1.2247665,3.9600866,4.1874814,-1.3901765
180,2026-05-11 16:10:22.684320,0.36142352,0.11378712,1.2247665,3.9600866,4.1874814,-1.3901765
181,2026-05-11 16:10:22.687167,0.36142352,0.11378712,1.2247665,3.9600866,4.1874814,-1.3901765
182,2026-05-11 16:10:22.689776,0.36142352,0.11378712,1.2247665,3.9600866,4.1874814,-1.3901765
183,2026-05-11 16:10:22.692340,0.36142352,0.11378712,1.2247665,3.9600866,4.1874814,-1.3901765
184,2026-05-11 16:10:22.695029,0.36142352,0.11378712,1.2247665,3.9600866,4.1874814,-1.3901765
185,2026-05-11 16:10:22.697557,0.36142352,0.11378712,1.2247665,3.9600866,4.1874814,-1.3901765
186,2026-05-11 16:10:22.700761,0.36142352,0.11378712,1.2247665,3.9600866,4.1874814,-1.3901765
187,2026-05-11 16:10:22.703517,0.36142352,0.11378712,1.2247665,3.9600866,4.1874814,-1.3901765
188,2026-05-11 16:10:22.706278,0.36142352,0.11378712,1.2247665,3.9600866,4.1874814,-1.3901765
189,2026-05-11 16:10:22.708943,0.395145,0.108055085,0.9970094,3.9600866,4.1874814,-1.3901765
190,2026-05-11 16:10:22.711612,0.395145,0.108055085,0.9970094,3.9600866,4.1874814,-1.3901765
191,2026-05-11 16:10:22.714182,0.395145,0.108055085,0.9970094,3.9600866,4.1874814,-1.3901765
192,2026-05-11 16:10:22.717258,0.395145,0.108055085,0.9970094,3.9600866,4.1874814,-1.3901765
193,2026-05-11 16:10:22.719972,0.395145,0.108055085,0.9970094,3.9600866,4.1874814,-1.3901765
194,2026-05-11 16:10:22.722720,0.395145,0.108055085,0.9970094,3.9600866,4.1874814,-1.3901765
195,2026-05-11 16:10:22.725303,0.395145,0.108055085,0.9970094,3.9600866,4.1874814,-1.3901765
196,2026-05-11 16:10:22.728113,0.395145,0.108055085,0.9970094,3.9600866,4.1874814,-1.3901765
197,2026-05-11 16:10:22.730871,0.395145,0.108055085,0.9970094,3.7191002,4.479475,-1.2768611
198,2026-05-11 16:10:22.733838,0.395145,0.108055085,0.9970094,3.7191002,4.479475,-1.2768611
199,2026-05-11 16:10:22.736695,0.395145,0.108055085,0.9970094,3.7191002,4.479475,-1.2768611
200,2026-05-11 16:10:22.739379,0.395145,0.108055085,0.9970094,3.7191002,4.479475,-1.2768611
201,2026-05-11 16:10:22.741990,0.395145,0.108055085,0.9970094,3.7191002,4.479475,-1.2768611
202,2026-05-11 16:10:22.744603,0.395145,0.108055085,0.9970094,3.7191002,4.479475,-1.2768611
203,2026-05-11 16:10:22.747150,0.395145,0.108055085,0.9970094,3.7191002,4.479475,-1.2768611
204,2026-05-11 16:10:22.750159,0.395145,0.108055085,0.9970094,3.7191002,4.479475,-1.2768611
205,2026-05-11 16:10:22.753080,0.395145,0.108055085,0.9970094,3.7191002,4.479475,-1.2768611
206,2026-05-11 16:10:22.755695,0.395145,0.108055085,0.9970094,3.7191002,4.479475,-1.2768611
207,2026-05-11 16:10:22.758312,0.395145,0.108055085,0.9970094,3.7191002,4.479475,-1.2768611
208,2026-05-11 16:10:22.760965,0.395145,0.108055085,0.9970094,3.7191002,4.479475,-1.2768611
209,2026-05-11 16:10:22.763531,0.395145,0.108055085,0.9970094,3.7191002,4.479475,-1.2768611
210,2026-05-11 16:10:22.766414,0.395145,0.108055085,0.9970094,3.7191002,4.479475,-1.2768611
211,2026-05-11 16:10:22.769481,0.395145,0.108055085,0.9970094,3.7191002,4.479475,-1.2768611
212,2026-05-11 16:10:22.772147,0.395145,0.108055085,0.9970094,3.7191002,4.479475,-1.2768611
213,2026-05-11 16:10:22.774775,0.395145,0.108055085,0.9970094,3.7191002,4.479475,-1.2768611
214,2026-05-11 16:10:22.777496,0.395145,0.108055085,0.9970094,3.7191002,4.479475,-1.2768611
215,2026-05-11 16:10:22.780057,0.395145,0.108055085,0.9970094,3.7191002,4.479475,-1.2768611
216,2026-05-11 16:10:22.790985,0.395145,0.108055085,0.9970094,3.7191002,4.479475,-1.2768611
217,2026-05-11 16:10:22.809925,0.395145,0.108055085,0.9970094,3.7191002,4.479475,-1.2768611
218,2026-05-11 16:10:22.814174,0.395145,0.108055085,0.9970094,3.7191002,4.479475,-1.2768611
219,2026-05-11 16:10:22.819924,0.395145,0.108055085,0.9970094,3.7191002,4.479475,-1.2768611
220,2026-05-11 16:10:22.822665,0.395145,0.108055085,0.9970094,3.7191002,4.479475,-1.2768611
221,2026-05-11 16:10:22.825299,0.395145,0.108055085,0.9970094,3.670842,4.4536657,-1.2270756
222,2026-05-11 16:10:22.828158,0.395145,0.108055085,0.9970094,3.670842,4.4536657,-1.2270756
223,2026-05-11 16:10:22.830887,0.36361876,0.06421106,0.9227367,3.670842,4.4536657,-1.2270756
224,2026-05-11 16:10:22.833775,0.36361876,0.06421106,0.9227367,3.670842,4.4536657,-1.2270756
225,2026-05-11 16:10:22.836573,0.3579477,-0.03683142,0.8596843,3.8484511,4.2476516,-1.1476631
226,2026-05-11 16:10:22.839373,0.3579477,-0.03683142,0.8596843,3.8484511,4.2476516,-1.1476631
227,2026-05-11 16:10:22.841987,0.3579477,-0.03683142,0.8596843,3.8484511,4.2476516,-1.1476631
228,2026-05-11 16:10:22.844796,0.3579477,-0.03683142,0.8596843,3.8484511,4.2476516,-1.1476631
229,2026-05-11 16:10:22.847349,0.3579477,-0.03683142,0.8596843,3.8484511,4.2476516,-1.1476631
230,2026-05-11 16:10:22.850490,0.3579477,-0.03683142,0.8596843,3.8484511,4.2476516,-1.1476631
231,2026-05-11 16:10:22.853317,0.3579477,-0.03683142,0.8596843,3.8484511,4.2476516,-1.1476631
232,2026-05-11 16:10:22.855967,0.3579477,-0.03683142,0.8596843,3.8484511,4.2476516,-1.1476631
233,2026-05-11 16:10:22.858564,0.3579477,-0.03683142,0.8596843,3.8484511,4.2476516,-1.1476631
234,2026-05-11 16:10:22.861306,0.3579477,-0.03683142,0.8596843,3.8484511,4.2476516,-1.1476631
235,2026-05-11 16:10:22.863849,0.3579477,-0.03683142,0.8596843,3.8484511,4.2476516,-1.1476631
236,2026-05-11 16:10:22.866832,0.3579477,-0.03683142,0.8596843,3.8484511,4.2476516,-1.1476631
237,2026-05-11 16:10:22.869787,0.3579477,-0.03683142,0.8596843,3.8484511,4.2476516,-1.1476631
238,2026-05-11 16:10:22.872451,0.4265493,-0.097322755,0.7497389,3.8484511,4.2476516,-1.1476631
239,2026-05-11 16:10:22.875033,0.4265493,-0.097322755,0.7497389,3.8484511,4.2476516,-1.1476631
240,2026-05-11 16:10:22.877637,0.4265493,-0.097322755,0.7497389,3.8484511,4.2476516,-1.1476631
241,2026-05-11 16:10:22.880341,0.4265493,-0.097322755,0.7497389,3.8484511,4.2476516,-1.1476631
242,2026-05-11 16:10:22.883345,0.4265493,-0.097322755,0.7497389,3.8484511,4.2476516,-1.1476631
243,2026-05-11 16:10:22.886320,0.4265493,-0.097322755,0.7497389,3.8484511,4.2476516,-1.1476631
244,2026-05-11 16:10:22.888890,0.4265493,-0.097322755,0.7497389,3.8484511,4.2476516,-1.1476631
245,2026-05-11 16:10:22.891748,0.4265493,-0.097322755,0.7497389,3.8484511,4.2476516,-1.1476631
246,2026-05-11 16:10:22.894534,0.4265493,-0.097322755,0.7497389,3.8484511,4.2476516,-1.1476631
247,2026-05-11 16:10:22.897156,0.4265493,-0.097322755,0.7497389,3.8484511,4.2476516,-1.1476631
248,2026-05-11 16:10:22.900386,0.4265493,-0.097322755,0.7497389,3.8484511,4.2476516,-1.1476631
249,2026-05-11 16:10:22.903167,0.4265493,-0.097322755,0.7497389,3.8484511,4.2476516,-1.1476631
250,2026-05-11 16:10:22.905880,0.4265493,-0.097322755,0.7497389,4.179998,3.9692497,-1.1082623
251,2026-05-11 16:10:22.908557,0.4265493,-0.097322755,0.7497389,4.179998,3.9692497,-1.1082623
252,2026-05-11 16:10:22.911130,0.4265493,-0.097322755,0.7497389,4.179998,3.9692497,-1.1082623
253,2026-05-11 16:10:22.913790,0.4265493,-0.097322755,0.7497389,4.179998,3.9692497,-1.1082623
254,2026-05-11 16:10:22.916598,0.4265493,-0.097322755,0.7497389,4.179998,3.9692497,-1.1082623
255,2026-05-11 16:10:22.919540,0.4265493,-0.097322755,0.7497389,4.179998,3.9692497,-1.1082623
256,2026-05-11 16:10:22.922121,0.4265493,-0.097322755,0.7497389,4.179998,3.9692497,-1.1082623
257,2026-05-11 16:10:22.924694,0.4265493,-0.097322755,0.7497389,4.179998,3.9692497,-1.1082623
258,2026-05-11 16:10:22.927377,0.4265493,-0.097322755,0.7497389,4.179998,3.9692497,-1.1082623
259,2026-05-11 16:10:22.929914,0.4265493,-0.097322755,0.7497389,4.179998,3.9692497,-1.1082623
260,2026-05-11 16:10:22.933110,0.4265493,-0.097322755,0.7497389,4.179998,3.9692497,-1.1082623
261,2026-05-11 16:10:22.935934,0.4265493,-0.097322755,0.7497389,4.179998,3.9692497,-1.1082623
262,2026-05-11 16:10:22.938529,0.4265493,-0.097322755,0.7497389,4.179998,3.9692497,-1.1082623
263,2026-05-11 16:10:22.941255,0.4265493,-0.097322755,0.7497389,4.179998,3.9692497,-1.1082623
264,2026-05-11 16:10:22.944006,0.4265493,-0.097322755,0.7497389,4.179998,3.9692497,-1.1082623
265,2026-05-11 16:10:22.946732,0.4265493,-0.097322755,0.7497389,4.179998,3.9692497,-1.1082623
266,2026-05-11 16:10:22.949412,0.4265493,-0.097322755,0.7497389,4.179998,3.9692497,-1.1082623
267,2026-05-11 16:10:22.952606,0.4265493,-0.097322755,0.7497389,4.179998,3.9692497,-1.1082623
268,2026-05-11 16:10:22.955438,0.4265493,-0.097322755,0.7497389,4.179998,3.9692497,-1.1082623
269,2026-05-11 16:10:22.958079,0.4265493,-0.097322755,0.7497389,4.179998,3.9692497,-1.1082623
270,2026-05-11 16:10:22.960671,0.4265493,-0.097322755,0.7497389,4.179998,3.9692497,-1.1082623
271,2026-05-11 16:10:22.963284,0.4265493,-0.097322755,0.7497389,4.179998,3.9692497,-1.1082623
272,2026-05-11 16:10:22.965884,0.4265493,-0.097322755,0.7497389,4.179998,3.9692497,-1.1082623
273,2026-05-11 16:10:22.969196,0.4265493,-0.097322755,0.7497389,4.179998,3.9692497,-1.1082623
274,2026-05-11 16:10:22.971768,0.4265493,-0.097322755,0.7497389,4.179998,3.9692497,-1.1082623
275,2026-05-11 16:10:22.974492,0.4265493,-0.097322755,0.7497389,4.179998,3.9692497,-1.1082623
276,2026-05-11 16:10:22.977057,0.4265493,-0.097322755,0.7497389,4.179998,3.9692497,-1.1082623
277,2026-05-11 16:10:22.979597,0.4265493,-0.097322755,0.7497389,4.179998,3.9692497,-1.1082623
278,2026-05-11 16:10:22.982195,0.4265493,-0.097322755,0.7497389,4.179998,3.9692497,-1.1082623
279,2026-05-11 16:10:22.985374,0.4265493,-0.097322755,0.7497389,4.179998,3.9692497,-1.1082623
280,2026-05-11 16:10:22.988256,0.4265493,-0.097322755,0.7497389,4.179998,3.9692497,-1.1082623
281,2026-05-11 16:10:22.990902,0.4265493,-0.097322755,0.7497389,4.179998,3.9692497,-1.1082623
282,2026-05-11 16:10:22.993499,0.4265493,-0.097322755,0.7497389,4.179998,3.9692497,-1.1082623
283,2026-05-11 16:10:22.996242,0.4265493,-0.097322755,0.7497389,4.179998,3.9692497,-1.1082623
284,2026-05-11 16:10:22.998947,0.44746515,-0.14952092,0.5860708,4.179998,3.9692497,-1.1082623
285,2026-05-11 16:10:23.001984,0.44746515,-0.14952092,0.5860708,4.179998,3.9692497,-1.1082623
286,2026-05-11 16:10:23.004855,0.2581858,-0.2894681,-0.06158896,4.8840203,2.8979447,-1.3107641
287,2026-05-11 16:10:23.007538,0.2581858,-0.2894681,-0.06158896,4.7635274,2.6772697,-1.2944235
288,2026-05-11 16:10:23.010128,0.2581858,-0.2894681,-0.06158896,4.7635274,2.6772697,-1.2944235
289,2026-05-11 16:10:23.012875,0.2581858,-0.2894681,-0.06158896,4.7635274,2.6772697,-1.2944235
290,2026-05-11 16:10:23.015535,0.2581858,-0.2894681,-0.06158896,4.7635274,2.6772697,-1.2944235
291,2026-05-11 16:10:23.018489,0.2581858,-0.2894681,-0.06158896,4.7635274,2.6772697,-1.2944235
292,2026-05-11 16:10:23.021134,0.2581858,-0.2894681,-0.06158896,4.7635274,2.6772697,-1.2944235
293,2026-05-11 16:10:23.023666,0.2581858,-0.2894681,-0.06158896,4.7635274,2.6772697,-1.2944235
294,2026-05-11 16:10:23.026225,0.2581858,-0.2894681,-0.06158896,4.7635274,2.6772697,-1.2944235
295,2026-05-11 16:10:23.028810,0.2581858,-0.2894681,-0.06158896,4.7635274,2.6772697,-1.2944235
296,2026-05-11 16:10:23.031332,0.2581858,-0.2894681,-0.06158896,4.7635274,2.6772697,-1.2944235
297,2026-05-11 16:10:23.034359,0.2581858,-0.2894681,-0.06158896,4.7635274,2.6772697,-1.2944235
298,2026-05-11 16:10:23.037236,0.2581858,-0.2894681,-0.06158896,4.7635274,2.6772697,-1.2944235
299,2026-05-11 16:10:23.039848,0.2581858,-0.2894681,-0.06158896,4.7635274,2.6772697,-1.2944235
300,2026-05-11 16:10:23.042489,0.2581858,-0.2894681,-0.06158896,4.7635274,2.6772697,-1.2944235
301,2026-05-11 16:10:23.045153,0.2947733,-0.2626373,-0.055003207,4.57645,2.484847,-1.3130548
302,2026-05-11 16:10:23.047698,0.2947733,-0.2626373,-0.055003207,4.57645,2.484847,-1.3130548
303,2026-05-11 16:10:23.050976,0.2947733,-0.2626373,-0.055003207,4.57645,2.484847,-1.3130548
304,2026-05-11 16:10:23.053895,0.2947733,-0.2626373,-0.055003207,4.57645,2.484847,-1.3130548
305,2026-05-11 16:10:23.056594,0.2947733,-0.2626373,-0.055003207,4.57645,2.484847,-1.3130548
306,2026-05-11 16:10:23.059157,0.2947733,-0.2626373,-0.055003207,4.57645,2.484847,-1.3130548
307,2026-05-11 16:10:23.061906,0.2947733,-0.2626373,-0.055003207,4.57645,2.484847,-1.3130548
308,2026-05-11 16:10:23.064502,0.2947733,-0.2626373,-0.055003207,4.57645,2.484847,-1.3130548
309,2026-05-11 16:10:23.067529,0.2947733,-0.2626373,-0.055003207,4.57645,2.484847,-1.3130548
310,2026-05-11 16:10:23.070487,0.2947733,-0.2626373,-0.055003207,4.57645,2.484847,-1.3130548
311,2026-05-11 16:10:23.073219,0.2947733,-0.2626373,-0.055003207,4.57645,2.484847,-1.3130548
312,2026-05-11 16:10:23.075819,0.2947733,-0.2626373,-0.055003207,4.57645,2.484847,-1.3130548
313,2026-05-11 16:10:23.078588,0.2947733,-0.2626373,-0.055003207,4.57645,2.484847,-1.3130548
314,2026-05-11 16:10:23.081144,0.2947733,-0.2626373,-0.055003207,4.57645,2.484847,-1.3130548
315,2026-05-11 16:10:23.084429,0.2947733,-0.2626373,-0.055003207,4.57645,2.484847,-1.3130548
316,2026-05-11 16:10:23.087183,0.2947733,-0.2626373,-0.055003207,4.57645,2.484847,-1.3130548
317,2026-05-11 16:10:23.089764,0.2947733,-0.2626373,-0.055003207,4.57645,2.484847,-1.3130548
318,2026-05-11 16:10:23.092520,0.2947733,-0.2626373,-0.055003207,4.57645,2.484847,-1.3130548
319,2026-05-11 16:10:23.095105,0.2947733,-0.2626373,-0.055003207,4.57645,2.484847,-1.3130548
320,2026-05-11 16:10:23.097845,0.2947733,-0.2626373,-0.055003207,4.57645,2.484847,-1.3130548
321,2026-05-11 16:10:23.100914,0.2947733,-0.2626373,-0.055003207,4.57645,2.484847,-1.3130548
322,2026-05-11 16:10:23.103683,0.2947733,-0.2626373,-0.055003207,4.57645,2.484847,-1.3130548
323,2026-05-11 16:10:23.106434,0.2947733,-0.2626373,-0.055003207,4.57645,2.484847,-1.3130548
324,2026-05-11 16:10:23.108961,0.2947733,-0.2626373,-0.055003207,4.57645,2.484847,-1.3130548
325,2026-05-11 16:10:23.111588,0.2947733,-0.2626373,-0.055003207,4.57645,2.484847,-1.3130548
326,2026-05-11 16:10:23.114116,0.2947733,-0.2626373,-0.055003207,4.57645,2.484847,-1.3130548
327,2026-05-11 16:10:23.117170,0.2947733,-0.2626373,-0.055003207,4.57645,2.484847,-1.3130548
328,2026-05-11 16:10:23.119828,0.2947733,-0.2626373,-0.055003207,4.57645,2.484847,-1.3130548
329,2026-05-11 16:10:23.122321,0.2947733,-0.2626373,-0.055003207,4.57645,2.484847,-1.3130548
330,2026-05-11 16:10:23.124993,0.2947733,-0.2626373,-0.055003207,4.57645,2.484847,-1.3130548
331,2026-05-11 16:10:23.127570,0.2947733,-0.2626373,-0.055003207,4.57645,2.484847,-1.3130548
332,2026-05-11 16:10:23.130094,0.2947733,-0.2626373,-0.055003207,4.57645,2.484847,-1.3130548
333,2026-05-11 16:10:23.133150,0.2947733,-0.2626373,-0.055003207,4.547128,2.4094052,-1.3869696
334,2026-05-11 16:10:23.136043,0.2947733,-0.2626373,-0.055003207,4.547128,2.4094052,-1.3869696
335,2026-05-11 16:10:23.138885,0.2947733,-0.2626373,-0.055003207,4.547128,2.4094052,-1.3869696
336,2026-05-11 16:10:23.141506,0.2947733,-0.2626373,-0.055003207,4.547128,2.4094052,-1.3869696
337,2026-05-11 16:10:23.144148,0.2947733,-0.2626373,-0.055003207,4.547128,2.4094052,-1.3869696
338,2026-05-11 16:10:23.147007,0.2947733,-0.2626373,-0.055003207,4.547128,2.4094052,-1.3869696
339,2026-05-11 16:10:23.150239,0.292761,-0.26861322,-0.039941356,4.547128,2.4094052,-1.3869696
340,2026-05-11 16:10:23.153287,0.292761,-0.26861322,-0.039941356,4.547128,2.4094052,-1.3869696
341,2026-05-11 16:10:23.155974,0.292761,-0.26861322,-0.039941356,4.547128,2.4094052,-1.3869696
342,2026-05-11 16:10:23.158597,0.292761,-0.26861322,-0.039941356,4.547128,2.4094052,-1.3869696
343,2026-05-11 16:10:23.161428,0.292761,-0.26861322,-0.039941356,4.547128,2.4094052,-1.3869696
344,2026-05-11 16:10:23.164153,0.292761,-0.26861322,-0.039941356,4.547128,2.4094052,-1.3869696
345,2026-05-11 16:10:23.167537,0.292761,-0.26861322,-0.039941356,4.547128,2.4094052,-1.3869696
346,2026-05-11 16:10:23.170288,0.292761,-0.26861322,-0.039941356,4.547128,2.4094052,-1.3869696
347,2026-05-11 16:10:23.173160,0.292761,-0.26861322,-0.039941356,4.547128,2.4094052,-1.3869696
348,2026-05-11 16:10:23.175795,0.292761,-0.26861322,-0.039941356,4.547128,2.4094052,-1.3869696
349,2026-05-11 16:10:23.178422,0.292761,-0.26861322,-0.039941356,4.547128,2.4094052,-1.3869696
350,2026-05-11 16:10:23.181190,0.292761,-0.26861322,-0.039941356,4.547128,2.4094052,-1.3869696
351,2026-05-11 16:10:23.184612,0.292761,-0.26861322,-0.039941356,4.547128,2.4094052,-1.3869696
352,2026-05-11 16:10:23.187396,0.292761,-0.26861322,-0.039941356,4.547128,2.4094052,-1.3869696
353,2026-05-11 16:10:23.190067,0.292761,-0.26861322,-0.039941356,4.547128,2.4094052,-1.3869696
354,2026-05-11 16:10:23.192716,0.292761,-0.26861322,-0.039941356,4.547128,2.4094052,-1.3869696
355,2026-05-11 16:10:23.195314,0.292761,-0.26861322,-0.039941356,4.547128,2.4094052,-1.3869696
356,2026-05-11 16:10:23.198177,0.292761,-0.26861322,-0.039941356,4.547128,2.4094052,-1.3869696
357,2026-05-11 16:10:23.201486,0.292761,-0.26861322,-0.039941356,4.547128,2.4094052,-1.3869696
358,2026-05-11 16:10:23.204249,0.292761,-0.26861322,-0.039941356,4.547128,2.4094052,-1.3869696
359,2026-05-11 16:10:23.207011,0.292761,-0.26861322,-0.039941356,4.547128,2.4094052,-1.3869696
360,2026-05-11 16:10:23.209771,0.292761,-0.26861322,-0.039941356,4.547128,2.4094052,-1.3869696
361,2026-05-11 16:10:23.212372,0.292761,-0.26861322,-0.039941356,4.547128,2.4094052,-1.3869696
362,2026-05-11 16:10:23.215090,0.292761,-0.26861322,-0.039941356,4.547128,2.4094052,-1.3869696
363,2026-05-11 16:10:23.218296,0.292761,-0.26861322,-0.039941356,4.547128,2.4094052,-1.3869696
364,2026-05-11 16:10:23.221008,0.292761,-0.26861322,-0.039941356,4.547128,2.4094052,-1.3869696
365,2026-05-11 16:10:23.223697,0.292761,-0.26861322,-0.039941356,4.547128,2.4094052,-1.3869696
366,2026-05-11 16:10:23.226347,0.292761,-0.26861322,-0.039941356,4.547128,2.4094052,-1.3869696
367,2026-05-11 16:10:23.228926,0.292761,-0.26861322,-0.039941356,4.547128,2.4094052,-1.3869696
368,2026-05-11 16:10:23.231723,0.292761,-0.26861322,-0.039941356,4.547128,2.4094052,-1.3869696
369,2026-05-11 16:10:23.234949,0.292761,-0.26861322,-0.039941356,4.547128,2.4094052,-1.3869696
370,2026-05-11 16:10:23.237912,0.292761,-0.26861322,-0.039941356,4.547128,2.4094052,-1.3869696
371,2026-05-11 16:10:23.240572,0.292761,-0.26861322,-0.039941356,4.547128,2.4094052,-1.3869696
372,2026-05-11 16:10:23.243170,0.292761,-0.26861322,-0.039941356,4.547128,2.4094052,-1.3869696
373,2026-05-11 16:10:23.245893,0.292761,-0.26861322,-0.039941356,4.547128,2.4094052,-1.3869696
374,2026-05-11 16:10:23.248430,0.292761,-0.26861322,-0.039941356,4.547128,2.4094052,-1.3869696
375,2026-05-11 16:10:23.251589,0.292761,-0.26861322,-0.039941356,4.547128,2.4094052,-1.3869696
376,2026-05-11 16:10:23.254385,0.292761,-0.26861322,-0.039941356,4.547128,2.4094052,-1.3869696
377,2026-05-11 16:10:23.256944,0.292761,-0.26861322,-0.039941356,4.547128,2.4094052,-1.3869696
378,2026-05-11 16:10:23.259559,0.292761,-0.26861322,-0.039941356,4.547128,2.4094052,-1.3869696
379,2026-05-11 16:10:23.262185,0.292761,-0.26861322,-0.039941356,4.547128,2.4094052,-1.3869696
380,2026-05-11 16:10:23.264721,0.292761,-0.26861322,-0.039941356,4.547128,2.4094052,-1.3869696
381,2026-05-11 16:10:23.268047,0.292761,-0.26861322,-0.039941356,4.547128,2.4094052,-1.3869696
382,2026-05-11 16:10:23.270807,0.292761,-0.26861322,-0.039941356,4.547128,2.4094052,-1.3869696
383,2026-05-11 16:10:23.273409,0.292761,-0.26861322,-0.039941356,4.547128,2.4094052,-1.3869696
384,2026-05-11 16:10:23.276201,0.17872995,-0.27660152,-0.08817588,4.547128,2.4094052,-1.3869696
385,2026-05-11 16:10:23.278957,0.17872995,-0.27660152,-0.08817588,4.547128,2.4094052,-1.3869696
386,2026-05-11 16:10:23.281809,0.17872995,-0.27660152,-0.08817588,4.547128,2.4094052,-1.3869696
387,2026-05-11 16:10:23.285185,0.17872995,-0.27660152,-0.08817588,4.547128,2.4094052,-1.3869696
388,2026-05-11 16:10:23.287933,0.17872995,-0.27660152,-0.08817588,4.547128,2.4094052,-1.3869696
389,2026-05-11 16:10:23.290571,0.17872995,-0.27660152,-0.08817588,4.547128,2.4094052,-1.3869696
390,2026-05-11 16:10:23.293247,0.17872995,-0.27660152,-0.08817588,4.547128,2.4094052,-1.3869696
391,2026-05-11 16:10:23.295842,0.17872995,-0.27660152,-0.08817588,4.547128,2.4094052,-1.3869696
392,2026-05-11 16:10:23.298668,0.17872995,-0.27660152,-0.08817588,4.547128,2.4094052,-1.3869696
393,2026-05-11 16:10:23.301970,0.17872995,-0.27660152,-0.08817588,4.547128,2.4094052,-1.3869696
394,2026-05-11 16:10:23.304764,0.17872995,-0.27660152,-0.08817588,4.547128,2.4094052,-1.3869696
395,2026-05-11 16:10:23.307613,0.17872995,-0.27660152,-0.08817588,4.547128,2.4094052,-1.3869696
396,2026-05-11 16:10:23.310359,0.17872995,-0.27660152,-0.08817588,4.547128,2.4094052,-1.3869696
397,2026-05-11 16:10:23.312980,0.17872995,-0.27660152,-0.08817588,4.547128,2.4094052,-1.3869696
398,2026-05-11 16:10:23.315871,0.17872995,-0.27660152,-0.08817588,4.547128,2.4094052,-1.3869696
399,2026-05-11 16:10:23.319151,0.17872995,-0.27660152,-0.08817588,4.5489607,2.2941043,-1.5541939
400,2026-05-11 16:10:23.321998,0.17872995,-0.27660152,-0.08817588,4.5489607,2.2941043,-1.5541939
401,2026-05-11 16:10:23.324672,0.17872995,-0.27660152,-0.08817588,4.5489607,2.2941043,-1.5541939
402,2026-05-11 16:10:23.327710,0.17872995,-0.27660152,-0.08817588,4.5489607,2.2941043,-1.5541939
403,2026-05-11 16:10:23.330382,0.17872995,-0.27660152,-0.08817588,4.5489607,2.2941043,-1.5541939
404,2026-05-11 16:10:23.334187,0.17872995,-0.27660152,-0.08817588,4.5489607,2.2941043,-1.5541939
405,2026-05-11 16:10:23.337335,0.17872995,-0.27660152,-0.08817588,4.5489607,2.2941043,-1.5541939
406,2026-05-11 16:10:23.339971,0.17872995,-0.27660152,-0.08817588,4.5489607,2.2941043,-1.5541939
407,2026-05-11 16:10:23.342939,0.17872995,-0.27660152,-0.08817588,4.5489607,2.2941043,-1.5541939
408,2026-05-11 16:10:23.345791,0.11494574,-0.29666364,-0.14445965,4.5489607,2.2941043,-1.5541939
409,2026-05-11 16:10:23.348410,0.11494574,-0.29666364,-0.14445965,4.5489607,2.2941043,-1.5541939
410,2026-05-11 16:10:23.351393,0.11494574,-0.29666364,-0.14445965,4.533231,2.2759311,-1.5885551
411,2026-05-11 16:10:23.354261,0.11494574,-0.29666364,-0.14445965,4.533231,2.2759311,-1.5885551
412,2026-05-11 16:10:23.356890,0.11494574,-0.29666364,-0.14445965,4.533231,2.2759311,-1.5885551
413,2026-05-11 16:10:23.359765,0.11494574,-0.29666364,-0.14445965,4.533231,2.2759311,-1.5885551
414,2026-05-11 16:10:23.362527,-0.08104131,-0.3234945,-0.44179407,4.533231,2.2759311,-1.5885551
415,2026-05-11 16:10:23.365210,-0.08104131,-0.3234945,-0.44179407,4.533231,2.2759311,-1.5885551
416,2026-05-11 16:10:23.368325,-0.08104131,-0.3234945,-0.44179407,4.533231,2.2759311,-1.5885551
417,2026-05-11 16:10:23.371088,-0.08104131,-0.3234945,-0.44179407,4.533231,2.2759311,-1.5885551
418,2026-05-11 16:10:23.373702,-0.08104131,-0.3234945,-0.44179407,4.533231,2.2759311,-1.5885551
419,2026-05-11 16:10:23.376341,-0.08104131,-0.3234945,-0.44179407,4.533231,2.2759311,-1.5885551
420,2026-05-11 16:10:23.378873,-0.08104131,-0.3234945,-0.44179407,4.533231,2.2759311,-1.5885551
421,2026-05-11 16:10:23.381472,-0.08104131,-0.3234945,-0.44179407,4.533231,2.2759311,-1.5885551
422,2026-05-11 16:10:23.384467,-0.08104131,-0.3234945,-0.44179407,4.533231,2.2759311,-1.5885551
423,2026-05-11 16:10:23.387293,-0.08104131,-0.3234945,-0.44179407,4.3854017,2.1374176,-1.6836973
424,2026-05-11 16:10:23.389898,-0.08104131,-0.3234945,-0.44179407,4.3854017,2.1374176,-1.6836973
425,2026-05-11 16:10:23.392484,-0.08104131,-0.3234945,-0.44179407,4.3854017,2.1374176,-1.6836973
426,2026-05-11 16:10:23.395165,-0.08104131,-0.3234945,-0.44179407,4.3854017,2.1374176,-1.6836973
427,2026-05-11 16:10:23.397712,-0.08104131,-0.3234945,-0.44179407,4.3854017,2.1374176,-1.6836973
428,2026-05-11 16:10:23.400903,-0.08104131,-0.3234945,-0.44179407,4.3854017,2.1374176,-1.6836973
429,2026-05-11 16:10:23.403634,-0.08104131,-0.3234945,-0.44179407,4.3854017,2.1374176,-1.6836973
430,2026-05-11 16:10:23.406508,-0.08104131,-0.3234945,-0.44179407,4.3854017,2.1374176,-1.6836973
431,2026-05-11 16:10:23.409164,-0.08104131,-0.3234945,-0.44179407,4.3854017,2.1374176,-1.6836973
432,2026-05-11 16:10:23.411853,-0.08104131,-0.3234945,-0.44179407,4.3854017,2.1374176,-1.6836973
433,2026-05-11 16:10:23.414425,-0.08104131,-0.3234945,-0.44179407,4.3854017,2.1374176,-1.6836973
434,2026-05-11 16:10:23.417376,-0.08104131,-0.3234945,-0.44179407,4.3854017,2.1374176,-1.6836973
435,2026-05-11 16:10:23.420152,-0.08104131,-0.3234945,-0.44179407,4.3854017,2.1374176,-1.6836973
436,2026-05-11 16:10:23.422723,-0.08104131,-0.3234945,-0.44179407,4.3854017,2.1374176,-1.6836973
437,2026-05-11 16:10:23.425278,-0.08104131,-0.3234945,-0.44179407,4.3854017,2.1374176,-1.6836973
438,2026-05-11 16:10:23.428000,-0.08104131,-0.3234945,-0.44179407,4.3854017,2.1374176,-1.6836973
439,2026-05-11 16:10:23.430595,-0.08104131,-0.3234945,-0.44179407,4.3854017,2.1374176,-1.6836973
440,2026-05-11 16:10:23.433556,-0.08104131,-0.3234945,-0.44179407,4.3854017,2.1374176,-1.6836973
441,2026-05-11 16:10:23.436288,-0.08104131,-0.3234945,-0.44179407,4.3854017,2.1374176,-1.6836973
442,2026-05-11 16:10:23.438934,-0.08104131,-0.3234945,-0.44179407,4.3854017,2.1374176,-1.6836973
443,2026-05-11 16:10:23.441495,-0.08104131,-0.3234945,-0.44179407,4.3854017,2.1374176,-1.6836973
444,2026-05-11 16:10:23.444357,-0.08104131,-0.3234945,-0.44179407,4.3854017,2.1374176,-1.6836973
445,2026-05-11 16:10:23.447124,-0.08104131,-0.3234945,-0.44179407,4.3854017,2.1374176,-1.6836973
446,2026-05-11 16:10:23.450123,-0.08104131,-0.3234945,-0.44179407,4.3854017,2.1374176,-1.6836973
447,2026-05-11 16:10:23.452921,-0.08104131,-0.3234945,-0.44179407,4.3854017,2.1374176,-1.6836973
448,2026-05-11 16:10:23.455491,-0.08104131,-0.3234945,-0.44179407,4.3854017,2.1374176,-1.6836973
449,2026-05-11 16:10:23.458028,-0.08104131,-0.3234945,-0.44179407,4.3854017,2.1374176,-1.6836973
450,2026-05-11 16:10:23.460586,-0.08104131,-0.3234945,-0.44179407,4.3854017,2.1374176,-1.6836973
451,2026-05-11 16:10:23.463149,-0.08104131,-0.3234945,-0.44179407,4.3854017,2.1374176,-1.6836973
452,2026-05-11 16:10:23.465853,-0.08104131,-0.3234945,-0.44179407,4.3854017,2.1374176,-1.6836973
453,2026-05-11 16:10:23.468838,-0.08104131,-0.3234945,-0.44179407,4.3854017,2.1374176,-1.6836973
454,2026-05-11 16:10:23.471400,-0.08104131,-0.3234945,-0.44179407,4.3854017,2.1374176,-1.6836973
455,2026-05-11 16:10:23.474241,-0.08104131,-0.3234945,-0.44179407,4.3854017,2.1374176,-1.6836973
456,2026-05-11 16:10:23.477010,-0.19068186,-0.33154374,-0.7012604,4.3854017,2.1374176,-1.6836973
457,2026-05-11 16:10:23.479598,-0.19068186,-0.33154374,-0.7012604,4.3854017,2.1374176,-1.6836973
458,2026-05-11 16:10:23.482290,-0.19068186,-0.33154374,-0.7012604,4.0016255,1.9495764,-1.6566665
459,2026-05-11 16:10:23.485373,-0.19068186,-0.33154374,-0.7012604,4.0016255,1.9495764,-1.6566665
460,2026-05-11 16:10:23.488088,-0.19068186,-0.33154374,-0.7012604,4.0016255,1.9495764,-1.6566665
461,2026-05-11 16:10:23.490826,-0.19068186,-0.33154374,-0.7012604,4.0016255,1.9495764,-1.6566665
462,2026-05-11 16:10:23.493545,-0.19068186,-0.33154374,-0.7012604,4.0016255,1.9495764,-1.6566665
463,2026-05-11 16:10:23.496220,-0.19068186,-0.33154374,-0.7012604,4.0016255,1.9495764,-1.6566665
464,2026-05-11 16:10:23.498881,-0.19068186,-0.33154374,-0.7012604,4.0016255,1.9495764,-1.6566665
465,2026-05-11 16:10:23.502073,-0.19068186,-0.33154374,-0.7012604,4.0016255,1.9495764,-1.6566665
466,2026-05-11 16:10:23.504742,-0.19068186,-0.33154374,-0.7012604,4.0016255,1.9495764,-1.6566665
467,2026-05-11 16:10:23.507501,-0.19068186,-0.33154374,-0.7012604,4.0016255,1.9495764,-1.6566665
468,2026-05-11 16:10:23.510159,-0.19068186,-0.33154374,-0.7012604,4.0016255,1.9495764,-1.6566665
469,2026-05-11 16:10:23.512723,-0.19068186,-0.33154374,-0.7012604,4.0016255,1.9495764,-1.6566665
470,2026-05-11 16:10:23.515559,-0.19068186,-0.33154374,-0.7012604,4.0016255,1.9495764,-1.6566665
471,2026-05-11 16:10:23.518473,-0.19068186,-0.33154374,-0.7012604,4.0016255,1.9495764,-1.6566665
472,2026-05-11 16:10:23.521350,-0.19068186,-0.33154374,-0.7012604,4.0016255,1.9495764,-1.6566665
473,2026-05-11 16:10:23.523966,-0.19068186,-0.33154374,-0.7012604,4.0016255,1.9495764,-1.6566665
474,2026-05-11 16:10:23.526553,-0.19068186,-0.33154374,-0.7012604,4.0016255,1.9495764,-1.6566665
475,2026-05-11 16:10:23.529220,-0.19068186,-0.33154374,-0.7012604,4.0016255,1.9495764,-1.6566665
476,2026-05-11 16:10:23.531799,-0.19068186,-0.33154374,-0.7012604,4.0016255,1.9495764,-1.6566665
477,2026-05-11 16:10:23.534854,-0.19068186,-0.33154374,-0.7012604,4.0016255,1.9495764,-1.6566665
478,2026-05-11 16:10:23.537565,-0.19068186,-0.33154374,-0.7012604,4.0016255,1.9495764,-1.6566665
479,2026-05-11 16:10:23.540159,-0.19068186,-0.33154374,-0.7012604,4.0016255,1.9495764,-1.6566665
480,2026-05-11 16:10:23.542946,-0.19068186,-0.33154374,-0.7012604,4.0016255,1.9495764,-1.6566665
481,2026-05-11 16:10:23.545540,-0.19068186,-0.33154374,-0.7012604,4.0016255,1.9495764,-1.6566665
482,2026-05-11 16:10:23.548107,-0.19068186,-0.33154374,-0.7012604,4.0016255,1.9495764,-1.6566665
483,2026-05-11 16:10:23.551144,-0.19068186,-0.33154374,-0.7012604,4.0016255,1.9495764,-1.6566665
484,2026-05-11 16:10:23.553861,-0.19068186,-0.33154374,-0.7012604,4.0016255,1.9495764,-1.6566665
485,2026-05-11 16:10:23.556623,-0.19068186,-0.33154374,-0.7012604,4.0016255,1.9495764,-1.6566665
486,2026-05-11 16:10:23.559243,-0.19068186,-0.33154374,-0.7012604,4.0016255,1.9495764,-1.6566665
487,2026-05-11 16:10:23.561799,-0.19068186,-0.33154374,-0.7012604,4.0016255,1.9495764,-1.6566665
488,2026-05-11 16:10:23.564622,-0.19068186,-0.33154374,-0.7012604,4.0016255,1.9495764,-1.6566665
489,2026-05-11 16:10:23.567721,-0.19068186,-0.33154374,-0.7012604,4.0016255,1.9495764,-1.6566665
490,2026-05-11 16:10:23.570445,-0.19068186,-0.33154374,-0.7012604,4.0016255,1.9495764,-1.6566665
491,2026-05-11 16:10:23.573041,-0.19068186,-0.33154374,-0.7012604,4.0016255,1.9495764,-1.6566665
492,2026-05-11 16:10:23.575809,-0.19068186,-0.33154374,-0.7012604,4.0016255,1.9495764,-1.6566665
493,2026-05-11 16:10:23.578422,-0.19068186,-0.33154374,-0.7012604,4.0016255,1.9495764,-1.6566665
494,2026-05-11 16:10:23.581015,-0.19068186,-0.33154374,-0.7012604,4.0016255,1.9495764,-1.6566665
495,2026-05-11 16:10:23.584212,-0.19068186,-0.33154374,-0.7012604,4.0016255,1.9495764,-1.6566665
496,2026-05-11 16:10:23.586980,-0.19068186,-0.33154374,-0.7012604,4.0016255,1.9495764,-1.6566665
497,2026-05-11 16:10:23.589885,-0.19068186,-0.33154374,-0.7012604,4.0016255,1.9495764,-1.6566665
498,2026-05-11 16:10:23.592599,-0.19068186,-0.33154374,-0.7012604,4.0016255,1.9495764,-1.6566665
499,2026-05-11 16:10:23.595408,-0.24409962,-0.3261166,-0.8231578,4.0016255,1.9495764,-1.6566665
500,2026-05-11 16:10:23.598072,-0.24409962,-0.3261166,-0.8231578,4.0016255,1.9495764,-1.6566665
501,2026-05-11 16:10:23.601119,-0.24409962,-0.3261166,-0.8231578,4.0016255,1.9495764,-1.6566665
502,2026-05-11 16:10:23.603854,-0.24409962,-0.3261166,-0.8231578,4.0016255,1.9495764,-1.6566665
503,2026-05-11 16:10:23.606493,-0.24409962,-0.3261166,-0.8231578,4.0016255,1.9495764,-1.6566665
504,2026-05-11 16:10:23.609306,-0.24409962,-0.3261166,-0.8231578,3.8414261,1.8245018,-1.642922
505,2026-05-11 16:10:23.612105,-0.24409962,-0.3261166,-0.8231578,3.8414261,1.8245018,-1.642922
506,2026-05-11 16:10:23.614796,-0.24409962,-0.3261166,-0.8231578,3.8414261,1.8245018,-1.642922
507,2026-05-11 16:10:23.617885,-0.24409962,-0.3261166,-0.8231578,3.8414261,1.8245018,-1.642922
508,2026-05-11 16:10:23.620683,-0.24409962,-0.3261166,-0.8231578,3.8414261,1.8245018,-1.642922
509,2026-05-11 16:10:23.623337,-0.24409962,-0.3261166,-0.8231578,3.8414261,1.8245018,-1.642922
510,2026-05-11 16:10:23.626164,-0.24409962,-0.3261166,-0.8231578,3.8414261,1.8245018,-1.642922
511,2026-05-11 16:10:23.628786,-0.24409962,-0.3261166,-0.8231578,3.8414261,1.8245018,-1.642922
512,2026-05-11 16:10:23.631520,-0.24409962,-0.3261166,-0.8231578,3.8414261,1.8245018,-1.642922
513,2026-05-11 16:10:23.634537,-0.24409962,-0.3261166,-0.8231578,3.8414261,1.8245018,-1.642922
514,2026-05-11 16:10:23.637468,-0.24409962,-0.3261166,-0.8231578,3.8414261,1.8245018,-1.642922
515,2026-05-11 16:10:23.640078,-0.24409962,-0.3261166,-0.8231578,3.8414261,1.8245018,-1.642922
516,2026-05-11 16:10:23.642887,-0.24409962,-0.3261166,-0.8231578,3.8414261,1.8245018,-1.642922
517,2026-05-11 16:10:23.645499,-0.24409962,-0.3261166,-0.8231578,3.8414261,1.8245018,-1.642922
518,2026-05-11 16:10:23.648066,-0.24409962,-0.3261166,-0.8231578,3.8414261,1.8245018,-1.642922
519,2026-05-11 16:10:23.651039,-0.24409962,-0.3261166,-0.8231578,3.8414261,1.8245018,-1.642922
520,2026-05-11 16:10:23.653886,-0.37593657,-0.33483663,-1.0067661,3.8414261,1.8245018,-1.642922
521,2026-05-11 16:10:23.656503,-0.37593657,-0.33483663,-1.0067661,3.8414261,1.8245018,-1.642922
522,2026-05-11 16:10:23.659171,-0.37593657,-0.33483663,-1.0067661,3.8414261,1.8245018,-1.642922
523,2026-05-11 16:10:23.661752,-0.37593657,-0.33483663,-1.0067661,3.8414261,1.8245018,-1.642922
524,2026-05-11 16:10:23.664490,-0.37593657,-0.33483663,-1.0067661,3.8414261,1.8245018,-1.642922
525,2026-05-11 16:10:23.667419,-0.37593657,-0.33483663,-1.0067661,3.8414261,1.8245018,-1.642922
526,2026-05-11 16:10:23.670276,-0.37593657,-0.33483663,-1.0067661,3.3942728,1.3070989,-1.5957327
527,2026-05-11 16:10:23.672994,-0.37593657,-0.33483663,-1.0067661,3.3942728,1.3070989,-1.5957327
528,2026-05-11 16:10:23.675690,-0.37593657,-0.33483663,-1.0067661,3.3942728,1.3070989,-1.5957327
529,2026-05-11 16:10:23.678374,-0.37593657,-0.33483663,-1.0067661,3.3942728,1.3070989,-1.5957327
530,2026-05-11 16:10:23.681001,-0.37593657,-0.33483663,-1.0067661,3.3942728,1.3070989,-1.5957327
531,2026-05-11 16:10:23.684122,-0.37593657,-0.33483663,-1.0067661,3.3942728,1.3070989,-1.5957327
532,2026-05-11 16:10:23.686830,-0.37593657,-0.33483663,-1.0067661,3.3942728,1.3070989,-1.5957327
533,2026-05-11 16:10:23.689430,-0.37593657,-0.33483663,-1.0067661,3.3942728,1.3070989,-1.5957327
534,2026-05-11 16:10:23.692137,-0.37593657,-0.33483663,-1.0067661,3.3942728,1.3070989,-1.5957327
535,2026-05-11 16:10:23.694925,-0.37593657,-0.33483663,-1.0067661,3.3942728,1.3070989,-1.5957327
536,2026-05-11 16:10:23.697697,-0.48167443,-0.35404503,-1.2711108,3.1355712,1.0372492,-1.551445
537,2026-05-11 16:10:23.700658,-0.48167443,-0.35404503,-1.2711108,3.1355712,1.0372492,-1.551445
538,2026-05-11 16:10:23.703324,-0.48167443,-0.35404503,-1.2711108,3.1355712,1.0372492,-1.551445
539,2026-05-11 16:10:23.705857,-0.48167443,-0.35404503,-1.2711108,3.1355712,1.0372492,-1.551445
540,2026-05-11 16:10:23.708597,-0.48167443,-0.35404503,-1.2711108,3.1355712,1.0372492,-1.551445
541,2026-05-11 16:10:23.711206,-0.48167443,-0.35404503,-1.2711108,3.1355712,1.0372492,-1.551445
542,2026-05-11 16:10:23.713775,-0.48167443,-0.35404503,-1.2711108,3.1355712,1.0372492,-1.551445
543,2026-05-11 16:10:23.716606,-0.48167443,-0.35404503,-1.2711108,3.1355712,1.0372492,-1.551445
544,2026-05-11 16:10:23.719528,-0.48167443,-0.35404503,-1.2711108,3.1355712,1.0372492,-1.551445
545,2026-05-11 16:10:23.722152,-0.48167443,-0.35404503,-1.2711108,3.1355712,1.0372492,-1.551445
546,2026-05-11 16:10:23.724908,-0.48167443,-0.35404503,-1.2711108,3.1355712,1.0372492,-1.551445
547,2026-05-11 16:10:23.727492,-0.48167443,-0.35404503,-1.2711108,3.1355712,1.0372492,-1.551445
548,2026-05-11 16:10:23.730305,-0.48167443,-0.35404503,-1.2711108,3.1355712,1.0372492,-1.551445
549,2026-05-11 16:10:23.733493,-0.48167443,-0.35404503,-1.2711108,3.1355712,1.0372492,-1.551445
550,2026-05-11 16:10:23.736356,-0.48167443,-0.35404503,-1.2711108,3.1355712,1.0372492,-1.551445
551,2026-05-11 16:10:23.739029,-0.48167443,-0.35404503,-1.2711108,2.5170703,0.7273878,-1.483639
552,2026-05-11 16:10:23.741773,-0.48167443,-0.35404503,-1.2711108,2.5170703,0.7273878,-1.483639
553,2026-05-11 16:10:23.744447,-0.48167443,-0.35404503,-1.2711108,2.5170703,0.7273878,-1.483639
554,2026-05-11 16:10:23.747027,-0.48167443,-0.35404503,-1.2711108,2.5170703,0.7273878,-1.483639
555,2026-05-11 16:10:23.750238,-0.48167443,-0.35404503,-1.2711108,2.5170703,0.7273878,-1.483639
556,2026-05-11 16:10:23.753131,-0.48167443,-0.35404503,-1.2711108,2.5170703,0.7273878,-1.483639
557,2026-05-11 16:10:23.755855,-0.48167443,-0.35404503,-1.2711108,2.5170703,0.7273878,-1.483639
558,2026-05-11 16:10:23.758693,-0.6130236,-0.39557186,-1.4494748,1.838857,0.6760751,-1.4033102
559,2026-05-11 16:10:23.761399,-0.6130236,-0.39557186,-1.4494748,1.838857,0.6760751,-1.4033102
560,2026-05-11 16:10:23.764024,-0.6130236,-0.39557186,-1.4494748,1.838857,0.6760751,-1.4033102
561,2026-05-11 16:10:23.767100,-0.6130236,-0.39557186,-1.4494748,1.838857,0.6760751,-1.4033102
562,2026-05-11 16:10:23.770033,-0.6130236,-0.39557186,-1.4494748,1.838857,0.6760751,-1.4033102
563,2026-05-11 16:10:23.772689,-0.6130236,-0.39557186,-1.4494748,1.838857,0.6760751,-1.4033102
564,2026-05-11 16:10:23.775328,-0.6130236,-0.39557186,-1.4494748,1.838857,0.6760751,-1.4033102
565,2026-05-11 16:10:23.777919,-0.6130236,-0.39557186,-1.4494748,1.838857,0.6760751,-1.4033102
566,2026-05-11 16:10:23.780654,-0.6130236,-0.39557186,-1.4494748,1.838857,0.6760751,-1.4033102
567,2026-05-11 16:10:23.783654,-0.6130236,-0.39557186,-1.4494748,1.2660183,0.61285055,-1.2672399
568,2026-05-11 16:10:23.786419,-0.6130236,-0.39557186,-1.4494748,1.2660183,0.61285055,-1.2672399
569,2026-05-11 16:10:23.789031,-0.6130236,-0.39557186,-1.4494748,1.2660183,0.61285055,-1.2672399
570,2026-05-11 16:10:23.791633,-0.6130236,-0.39557186,-1.4494748,1.2660183,0.61285055,-1.2672399
571,2026-05-11 16:10:23.794334,-0.6130236,-0.39557186,-1.4494748,1.2660183,0.61285055,-1.2672399
572,2026-05-11 16:10:23.796895,-0.6130236,-0.39557186,-1.4494748,1.2660183,0.61285055,-1.2672399
573,2026-05-11 16:10:23.799966,-0.6130236,-0.39557186,-1.4494748,1.2660183,0.61285055,-1.2672399
574,2026-05-11 16:10:23.802661,-0.6130236,-0.39557186,-1.4494748,1.2660183,0.61285055,-1.2672399
575,2026-05-11 16:10:23.805270,-0.6130236,-0.39557186,-1.4494748,1.2660183,0.61285055,-1.2672399
576,2026-05-11 16:10:23.808126,-0.6130236,-0.39557186,-1.4494748,1.2660183,0.61285055,-1.2672399
577,2026-05-11 16:10:23.810808,-0.7396773,-0.42770788,-1.5333211,1.2660183,0.61285055,-1.2672399
578,2026-05-11 16:10:23.813513,-0.7396773,-0.42770788,-1.5333211,1.2660183,0.61285055,-1.2672399
579,2026-05-11 16:10:23.816600,-0.7396773,-0.42770788,-1.5333211,1.2660183,0.61285055,-1.2672399
580,2026-05-11 16:10:23.819535,-0.7396773,-0.42770788,-1.5333211,1.2660183,0.61285055,-1.2672399
581,2026-05-11 16:10:23.822134,-0.7396773,-0.42770788,-1.5333211,1.2660183,0.61285055,-1.2672399
582,2026-05-11 16:10:23.824937,-0.7396773,-0.42770788,-1.5333211,1.2660183,0.61285055,-1.2672399
583,2026-05-11 16:10:23.827574,-0.7396773,-0.42770788,-1.5333211,1.2660183,0.61285055,-1.2672399
584,2026-05-11 16:10:23.830174,-0.7396773,-0.42770788,-1.5333211,1.2660183,0.61285055,-1.2672399
585,2026-05-11 16:10:23.833337,-0.7396773,-0.42770788,-1.5333211,1.2660183,0.61285055,-1.2672399
586,2026-05-11 16:10:23.836203,-0.7396773,-0.42770788,-1.5333211,1.2660183,0.61285055,-1.2672399
587,2026-05-11 16:10:23.838804,-0.7396773,-0.42770788,-1.5333211,1.2660183,0.61285055,-1.2672399
588,2026-05-11 16:10:23.841575,-0.7396773,-0.42770788,-1.5333211,1.2660183,0.61285055,-1.2672399
589,2026-05-11 16:10:23.844333,-0.7396773,-0.42770788,-1.5333211,0.50671273,0.35995236,-0.9370673
590,2026-05-11 16:10:23.847072,-0.7396773,-0.42770788,-1.5333211,0.50671273,0.35995236,-0.9370673
591,2026-05-11 16:10:23.849975,-0.7396773,-0.42770788,-1.5333211,0.50671273,0.35995236,-0.9370673
592,2026-05-11 16:10:23.852833,-0.7396773,-0.42770788,-1.5333211,0.50671273,0.35995236,-0.9370673
593,2026-05-11 16:10:23.855420,-0.7396773,-0.42770788,-1.5333211,0.50671273,0.35995236,-0.9370673
594,2026-05-11 16:10:23.857955,-0.7396773,-0.42770788,-1.5333211,0.50671273,0.35995236,-0.9370673
595,2026-05-11 16:10:23.860669,-0.7396773,-0.42770788,-1.5333211,0.50671273,0.35995236,-0.9370673
596,2026-05-11 16:10:23.863206,-0.7396773,-0.42770788,-1.5333211,0.50671273,0.35995236,-0.9370673
597,2026-05-11 16:10:23.866240,-0.7396773,-0.42770788,-1.5333211,0.50671273,0.35995236,-0.9370673
598,2026-05-11 16:10:23.868973,-0.7396773,-0.42770788,-1.5333211,0.50671273,0.35995236,-0.9370673
599,2026-05-11 16:10:23.871504,-0.7396773,-0.42770788,-1.5333211,0.50671273,0.35995236,-0.9370673
600,2026-05-11 16:10:23.874046,-0.7396773,-0.42770788,-1.5333211,0.50671273,0.35995236,-0.9370673
601,2026-05-11 16:10:23.876678,-0.7396773,-0.42770788,-1.5333211,0.50671273,0.35995236,-0.9370673
602,2026-05-11 16:10:23.879223,-0.7396773,-0.42770788,-1.5333211,0.50671273,0.35995236,-0.9370673
603,2026-05-11 16:10:23.881751,-0.7396773,-0.42770788,-1.5333211,0.50671273,0.35995236,-0.9370673
604,2026-05-11 16:10:23.884745,-0.7396773,-0.42770788,-1.5333211,0.50671273,0.35995236,-0.9370673
605,2026-05-11 16:10:23.887370,-0.7396773,-0.42770788,-1.5333211,0.50671273,0.35995236,-0.9370673
606,2026-05-11 16:10:23.890043,-0.8966377,-0.47716197,-1.5944222,0.50671273,0.35995236,-0.9370673
607,2026-05-11 16:10:23.892671,-0.8966377,-0.47716197,-1.5944222,0.50671273,0.35995236,-0.9370673
608,2026-05-11 16:10:23.895220,-0.8966377,-0.47716197,-1.5944222,0.50671273,0.35995236,-0.9370673
609,2026-05-11 16:10:23.897746,-0.8966377,-0.47716197,-1.5944222,0.50671273,0.35995236,-0.9370673
610,2026-05-11 16:10:23.900663,-0.8966377,-0.47716197,-1.5944222,0.50671273,0.35995236,-0.9370673
611,2026-05-11 16:10:23.903380,-0.8966377,-0.47716197,-1.5944222,0.50671273,0.35995236,-0.9370673
612,2026-05-11 16:10:23.905977,-0.8966377,-0.47716197,-1.5944222,0.50671273,0.35995236,-0.9370673
613,2026-05-11 16:10:23.908581,-0.8966377,-0.47716197,-1.5944222,0.50671273,0.35995236,-0.9370673
614,2026-05-11 16:10:23.911160,-0.8966377,-0.47716197,-1.5944222,0.50671273,0.35995236,-0.9370673
615,2026-05-11 16:10:23.913732,-0.8966377,-0.47716197,-1.5944222,0.50671273,0.35995236,-0.9370673
616,2026-05-11 16:10:23.916928,-0.8966377,-0.47716197,-1.5944222,0.50671273,0.35995236,-0.9370673
617,2026-05-11 16:10:23.919788,-0.8966377,-0.47716197,-1.5944222,0.50671273,0.35995236,-0.9370673
618,2026-05-11 16:10:23.922616,-0.8966377,-0.47716197,-1.5944222,0.17088956,0.18173242,-0.61010164
619,2026-05-11 16:10:23.925418,-0.8966377,-0.47716197,-1.5944222,0.17088956,0.18173242,-0.61010164
620,2026-05-11 16:10:23.928113,-1.0137177,-0.52399397,-1.6125941,0.17088956,0.18173242,-0.61010164
621,2026-05-11 16:10:23.930766,-1.0738431,-0.5465563,-1.5573469,-0.40103304,-0.18860464,-0.10277808
622,2026-05-11 16:10:23.933885,-1.0738431,-0.5465563,-1.5573469,-0.40103304,-0.18860464,-0.10277808
623,2026-05-11 16:10:23.936655,-0.9974363,-0.50722474,-1.4654514,-0.40103304,-0.18860464,-0.10277808
624,2026-05-11 16:10:23.939424,-0.9974363,-0.50722474,-1.4654514,-0.40103304,-0.18860464,-0.10277808
625,2026-05-11 16:10:23.942042,-0.9974363,-0.50722474,-1.4654514,-0.40103304,-0.18860464,-0.10277808
626,2026-05-11 16:10:23.944806,-0.9974363,-0.50722474,-1.4654514,-0.40103304,-0.18860464,-0.10277808
627,2026-05-11 16:10:23.947383,-0.9974363,-0.50722474,-1.4654514,-0.40103304,-0.18860464,-0.10277808
628,2026-05-11 16:10:23.950384,-0.9974363,-0.50722474,-1.4654514,-0.40103304,-0.18860464,-0.10277808
629,2026-05-11 16:10:23.953215,-0.9974363,-0.50722474,-1.4654514,-0.40103304,-0.18860464,-0.10277808
630,2026-05-11 16:10:23.955792,-0.9974363,-0.50722474,-1.4654514,-0.40103304,-0.18860464,-0.10277808
631,2026-05-11 16:10:23.958364,-0.9974363,-0.50722474,-1.4654514,-0.40103304,-0.18860464,-0.10277808
632,2026-05-11 16:10:23.960924,-0.9974363,-0.50722474,-1.4654514,-0.40103304,-0.18860464,-0.10277808
633,2026-05-11 16:10:23.963468,-0.9974363,-0.50722474,-1.4654514,-0.40103304,-0.18860464,-0.10277808
634,2026-05-11 16:10:23.966513,-0.9974363,-0.50722474,-1.4654514,-0.40103304,-0.18860464,-0.10277808
635,2026-05-11 16:10:23.969589,-0.9974363,-0.50722474,-1.4654514,-0.40103304,-0.18860464,-0.10277808
636,2026-05-11 16:10:23.972217,-0.9974363,-0.50722474,-1.4654514,-0.40103304,-0.18860464,-0.10277808
637,2026-05-11 16:10:23.974785,-0.9974363,-0.50722474,-1.4654514,-0.40103304,-0.18860464,-0.10277808
638,2026-05-11 16:10:23.977534,-0.9974363,-0.50722474,-1.4654514,-0.40103304,-0.18860464,-0.10277808
639,2026-05-11 16:10:23.980122,-0.9974363,-0.50722474,-1.4654514,-0.40103304,-0.18860464,-0.10277808
640,2026-05-11 16:10:23.983115,-0.9974363,-0.50722474,-1.4654514,-0.40103304,-0.18860464,-0.10277808
641,2026-05-11 16:10:23.985937,-0.9974363,-0.50722474,-1.4654514,-0.40103304,-0.18860464,-0.10277808
642,2026-05-11 16:10:23.988574,-0.9974363,-0.50722474,-1.4654514,-0.40103304,-0.18860464,-0.10277808
643,2026-05-11 16:10:23.991286,-0.9974363,-0.50722474,-1.4654514,-0.40103304,-0.18860464,-0.10277808
644,2026-05-11 16:10:23.993830,-0.9974363,-0.50722474,-1.4654514,-0.40103304,-0.18860464,-0.10277808
645,2026-05-11 16:10:23.996598,-0.9974363,-0.50722474,-1.4654514,-0.40103304,-0.18860464,-0.10277808
646,2026-05-11 16:10:23.999457,-0.9974363,-0.50722474,-1.4654514,-0.40103304,-0.18860464,-0.10277808
647,2026-05-11 16:10:24.002479,-0.9974363,-0.50722474,-1.4654514,-0.95249164,-0.9074403,0.74006325
648,2026-05-11 16:10:24.005175,-0.9974363,-0.50722474,-1.4654514,-0.95249164,-0.9074403,0.74006325
649,2026-05-11 16:10:24.007783,-0.9974363,-0.50722474,-1.4654514,-0.95249164,-0.9074403,0.74006325
650,2026-05-11 16:10:24.010461,-0.9974363,-0.50722474,-1.4654514,-0.95249164,-0.9074403,0.74006325
651,2026-05-11 16:10:24.013032,-0.9974363,-0.50722474,-1.4654514,-0.95249164,-0.9074403,0.74006325
652,2026-05-11 16:10:24.015785,-0.9974363,-0.50722474,-1.4654514,-0.95249164,-0.9074403,0.74006325
653,2026-05-11 16:10:24.018884,-0.9974363,-0.50722474,-1.4654514,-0.95249164,-0.9074403,0.74006325
654,2026-05-11 16:10:24.021741,-0.7718743,-0.38910806,-1.3220284,-1.4873042,-1.8216002,1.391551
655,2026-05-11 16:10:24.024460,-0.7718743,-0.38910806,-1.3220284,-1.4873042,-1.8216002,1.391551
656,2026-05-11 16:10:24.027066,-0.7718743,-0.38910806,-1.3220284,-1.4873042,-1.8216002,1.391551
657,2026-05-11 16:10:24.029834,-0.7718743,-0.38910806,-1.3220284,-1.4873042,-1.8216002,1.391551
658,2026-05-11 16:10:24.032502,-0.7718743,-0.38910806,-1.3220284,-1.4873042,-1.8216002,1.391551
659,2026-05-11 16:10:24.035602,-0.7718743,-0.38910806,-1.3220284,-1.4873042,-1.8216002,1.391551
660,2026-05-11 16:10:24.038347,-0.7718743,-0.38910806,-1.3220284,-1.4873042,-1.8216002,1.391551
661,2026-05-11 16:10:24.040965,-0.7718743,-0.38910806,-1.3220284,-1.4873042,-1.8216002,1.391551
662,2026-05-11 16:10:24.043613,-0.7718743,-0.38910806,-1.3220284,-1.4873042,-1.8216002,1.391551
663,2026-05-11 16:10:24.046263,-0.7718743,-0.38910806,-1.3220284,-1.4873042,-1.8216002,1.391551
664,2026-05-11 16:10:24.048855,-0.7718743,-0.38910806,-1.3220284,-1.4873042,-1.8216002,1.391551
665,2026-05-11 16:10:24.051871,-0.7158954,-0.35630128,-1.270623,-1.4873042,-1.8216002,1.391551
666,2026-05-11 16:10:24.078949,-0.6220485,-0.34861788,-1.1353711,-1.4873042,-1.8216002,1.391551
667,2026-05-11 16:10:24.082869,-0.6220485,-0.34861788,-1.1353711,-1.7849482,-2.2676845,1.660179
668,2026-05-11 16:10:24.092316,-0.6220485,-0.34861788,-1.1353711,-1.7849482,-2.2676845,1.660179
669,2026-05-11 16:10:24.095085,-0.6220485,-0.34861788,-1.1353711,-1.7849482,-2.2676845,1.660179
670,2026-05-11 16:10:24.097684,-0.6220485,-0.34861788,-1.1353711,-1.7849482,-2.2676845,1.660179
671,2026-05-11 16:10:24.100651,-0.6220485,-0.34861788,-1.1353711,-1.7849482,-2.2676845,1.660179
672,2026-05-11 16:10:24.103381,-0.5573496,-0.34599578,-1.0367678,-2.084425,-2.6184738,1.9126191
673,2026-05-11 16:10:24.106235,-0.5573496,-0.34599578,-1.0367678,-2.084425,-2.6184738,1.9126191
674,2026-05-11 16:10:24.108875,-0.5573496,-0.34599578,-1.0367678,-2.084425,-2.6184738,1.9126191
675,2026-05-11 16:10:24.111555,-0.5573496,-0.34599578,-1.0367678,-2.084425,-2.6184738,1.9126191
676,2026-05-11 16:10:24.114106,-0.5573496,-0.34599578,-1.0367678,-2.084425,-2.6184738,1.9126191
677,2026-05-11 16:10:24.117350,-0.5573496,-0.34599578,-1.0367678,-2.084425,-2.6184738,1.9126191
678,2026-05-11 16:10:24.120193,-0.4454528,-0.35727695,-0.9116996,-2.084425,-2.6184738,1.9126191
679,2026-05-11 16:10:24.122850,-0.4454528,-0.35727695,-0.9116996,-2.084425,-2.6184738,1.9126191
680,2026-05-11 16:10:24.125598,-0.4454528,-0.35727695,-0.9116996,-2.084425,-2.6184738,1.9126191
681,2026-05-11 16:10:24.128241,-0.4454528,-0.35727695,-0.9116996,-2.084425,-2.6184738,1.9126191
682,2026-05-11 16:10:24.130982,-0.4454528,-0.35727695,-0.9116996,-2.084425,-2.6184738,1.9126191
683,2026-05-11 16:10:24.134092,-0.4454528,-0.35727695,-0.9116996,-2.3261747,-2.7956247,2.109165
684,2026-05-11 16:10:24.136942,-0.4454528,-0.35727695,-0.9116996,-2.3261747,-2.7956247,2.109165
685,2026-05-11 16:10:24.139628,-0.4454528,-0.35727695,-0.9116996,-2.3261747,-2.7956247,2.109165
686,2026-05-11 16:10:24.142341,-0.4454528,-0.35727695,-0.9116996,-2.3261747,-2.7956247,2.109165
687,2026-05-11 16:10:24.145070,-0.4454528,-0.35727695,-0.9116996,-2.3261747,-2.7956247,2.109165
688,2026-05-11 16:10:24.147747,-0.4454528,-0.35727695,-0.9116996,-2.3261747,-2.7956247,2.109165
689,2026-05-11 16:10:24.150880,-0.4454528,-0.35727695,-0.9116996,-2.3261747,-2.7956247,2.109165
690,2026-05-11 16:10:24.153603,-0.4454528,-0.35727695,-0.9116996,-2.3261747,-2.7956247,2.109165
691,2026-05-11 16:10:24.156236,-0.4454528,-0.35727695,-0.9116996,-2.3261747,-2.7956247,2.109165
692,2026-05-11 16:10:24.159107,-0.4454528,-0.35727695,-0.9116996,-2.3261747,-2.7956247,2.109165
693,2026-05-11 16:10:24.161995,-0.4454528,-0.35727695,-0.9116996,-2.3261747,-2.7956247,2.109165
694,2026-05-11 16:10:24.164646,-0.4454528,-0.35727695,-0.9116996,-2.3261747,-2.7956247,2.109165
695,2026-05-11 16:10:24.167930,-0.4454528,-0.35727695,-0.9116996,-2.3261747,-2.7956247,2.109165
696,2026-05-11 16:10:24.170684,-0.4454528,-0.35727695,-0.9116996,-2.3261747,-2.7956247,2.109165
697,2026-05-11 16:10:24.173272,-0.4454528,-0.35727695,-0.9116996,-2.3261747,-2.7956247,2.109165
698,2026-05-11 16:10:24.176078,-0.4454528,-0.35727695,-0.9116996,-2.3261747,-2.7956247,2.109165
699,2026-05-11 16:10:24.178824,-0.4454528,-0.35727695,-0.9116996,-2.3261747,-2.7956247,2.109165
700,2026-05-11 16:10:24.181532,-0.4454528,-0.35727695,-0.9116996,-2.3261747,-2.7956247,2.109165
701,2026-05-11 16:10:24.184572,-0.4454528,-0.35727695,-0.9116996,-2.3261747,-2.7956247,2.109165
702,2026-05-11 16:10:24.187490,-0.4454528,-0.35727695,-0.9116996,-2.3261747,-2.7956247,2.109165
703,2026-05-11 16:10:24.190143,-0.4454528,-0.35727695,-0.9116996,-2.3261747,-2.7956247,2.109165
704,2026-05-11 16:10:24.192785,-0.4454528,-0.35727695,-0.9116996,-2.3261747,-2.7956247,2.109165
705,2026-05-11 16:10:24.195365,-0.4454528,-0.35727695,-0.9116996,-2.3261747,-2.7956247,2.109165
706,2026-05-11 16:10:24.197955,-0.4454528,-0.35727695,-0.9116996,-2.3261747,-2.7956247,2.109165
707,2026-05-11 16:10:24.201152,-0.4454528,-0.35727695,-0.9116996,-2.3261747,-2.7956247,2.109165
708,2026-05-11 16:10:24.203933,-0.4454528,-0.35727695,-0.9116996,-2.3261747,-2.7956247,2.109165
709,2026-05-11 16:10:24.206548,-0.4454528,-0.35727695,-0.9116996,-2.3261747,-2.7956247,2.109165
710,2026-05-11 16:10:24.209304,-0.4454528,-0.35727695,-0.9116996,-2.3261747,-2.7956247,2.109165
711,2026-05-11 16:10:24.211905,-0.4454528,-0.35727695,-0.9116996,-2.3261747,-2.7956247,2.109165
712,2026-05-11 16:10:24.214599,-0.4454528,-0.35727695,-0.9116996,-2.3261747,-2.7956247,2.109165
713,2026-05-11 16:10:24.217518,-0.4454528,-0.35727695,-0.9116996,-2.3261747,-2.7956247,2.109165
714,2026-05-11 16:10:24.220204,-0.4454528,-0.35727695,-0.9116996,-2.3261747,-2.7956247,2.109165
715,2026-05-11 16:10:24.223044,-0.4454528,-0.35727695,-0.9116996,-2.3261747,-2.7956247,2.109165
716,2026-05-11 16:10:24.225885,-0.4454528,-0.35727695,-0.9116996,-2.3261747,-2.7956247,2.109165
717,2026-05-11 16:10:24.228667,-0.4454528,-0.35727695,-0.9116996,-2.3261747,-2.7956247,2.109165
718,2026-05-11 16:10:24.231371,-0.4454528,-0.35727695,-0.9116996,-2.3261747,-2.7956247,2.109165
719,2026-05-11 16:10:24.234522,-0.4454528,-0.35727695,-0.9116996,-2.3261747,-2.7956247,2.109165
720,2026-05-11 16:10:24.237134,-0.4454528,-0.35727695,-0.9116996,-2.3261747,-2.7956247,2.109165
721,2026-05-11 16:10:24.239891,-0.4454528,-0.35727695,-0.9116996,-2.3261747,-2.7956247,2.109165
722,2026-05-11 16:10:24.242505,-0.4454528,-0.35727695,-0.9116996,-2.3261747,-2.7956247,2.109165
723,2026-05-11 16:10:24.245189,-0.4454528,-0.35727695,-0.9116996,-2.3261747,-2.7956247,2.109165
724,2026-05-11 16:10:24.247747,-0.4454528,-0.35727695,-0.9116996,-2.3261747,-2.7956247,2.109165
725,2026-05-11 16:10:24.250871,-0.4454528,-0.35727695,-0.9116996,-2.3261747,-2.7956247,2.109165
726,2026-05-11 16:10:24.253677,-0.3565452,-0.36922884,-0.71760285,-2.68628,-2.9961412,2.217899
727,2026-05-11 16:10:24.256464,-0.3565452,-0.36922884,-0.71760285,-2.68628,-2.9961412,2.217899
728,2026-05-11 16:10:24.259076,-0.3565452,-0.36922884,-0.71760285,-2.68628,-2.9961412,2.217899
729,2026-05-11 16:10:24.261686,-0.3565452,-0.36922884,-0.71760285,-2.68628,-2.9961412,2.217899
730,2026-05-11 16:10:24.264255,-0.3565452,-0.36922884,-0.71760285,-2.68628,-2.9961412,2.217899
731,2026-05-11 16:10:24.267072,-0.3565452,-0.36922884,-0.71760285,-2.68628,-2.9961412,2.217899
732,2026-05-11 16:10:24.270440,-0.3565452,-0.36922884,-0.71760285,-2.68628,-2.9961412,2.217899
733,2026-05-11 16:10:24.273225,-0.3565452,-0.36922884,-0.71760285,-2.68628,-2.9961412,2.217899
734,2026-05-11 16:10:24.275904,-0.3565452,-0.36922884,-0.71760285,-2.7597365,-2.9788845,2.2988386
735,2026-05-11 16:10:24.278698,-0.3565452,-0.36922884,-0.71760285,-2.7597365,-2.9788845,2.2988386
736,2026-05-11 16:10:24.281342,-0.3565452,-0.36922884,-0.71760285,-2.7597365,-2.9788845,2.2988386
737,2026-05-11 16:10:24.284802,-0.4030723,-0.3605698,-0.6500989,-2.7597365,-2.9788845,2.2988386
738,2026-05-11 16:10:24.287701,-0.4030723,-0.3605698,-0.6500989,-2.7597365,-2.9788845,2.2988386
739,2026-05-11 16:10:24.290343,-0.4030723,-0.3605698,-0.6500989,-2.7597365,-2.9788845,2.2988386
740,2026-05-11 16:10:24.292930,-0.4030723,-0.3605698,-0.6500989,-2.7597365,-2.9788845,2.2988386
741,2026-05-11 16:10:24.295655,-0.4030723,-0.3605698,-0.6500989,-2.7597365,-2.9788845,2.2988386
742,2026-05-11 16:10:24.298250,-0.4030723,-0.3605698,-0.6500989,-2.7597365,-2.9788845,2.2988386
743,2026-05-11 16:10:24.301263,-0.4030723,-0.3605698,-0.6500989,-2.7597365,-2.9788845,2.2988386
744,2026-05-11 16:10:24.304171,-0.4030723,-0.3605698,-0.6500989,-2.7597365,-2.9788845,2.2988386
745,2026-05-11 16:10:24.306778,-0.4030723,-0.3605698,-0.6500989,-2.7597365,-2.9788845,2.2988386
746,2026-05-11 16:10:24.309431,-0.4030723,-0.3605698,-0.6500989,-2.7597365,-2.9788845,2.2988386
747,2026-05-11 16:10:24.312169,-0.4030723,-0.3605698,-0.6500989,-3.0729575,-3.0413454,2.7091873
748,2026-05-11 16:10:24.314906,-0.19385278,-0.4078287,-0.58655864,-3.0729575,-3.0413454,2.7091873
749,2026-05-11 16:10:24.317990,-0.19385278,-0.4078287,-0.58655864,-3.0729575,-3.0413454,2.7091873
750,2026-05-11 16:10:24.320649,-0.19385278,-0.4078287,-0.58655864,-3.0729575,-3.0413454,2.7091873
751,2026-05-11 16:10:24.323267,-0.19385278,-0.4078287,-0.58655864,-3.0729575,-3.0413454,2.7091873
752,2026-05-11 16:10:24.325872,-0.19385278,-0.4078287,-0.58655864,-3.0729575,-3.0413454,2.7091873
753,2026-05-11 16:10:24.328682,-0.19385278,-0.4078287,-0.58655864,-3.0729575,-3.0413454,2.7091873
754,2026-05-11 16:10:24.331439,-0.19385278,-0.4078287,-0.58655864,-3.0729575,-3.0413454,2.7091873
755,2026-05-11 16:10:24.334455,-0.19385278,-0.4078287,-0.58655864,-3.0729575,-3.0413454,2.7091873
756,2026-05-11 16:10:24.337198,-0.19385278,-0.4078287,-0.58655864,-3.0729575,-3.0413454,2.7091873
757,2026-05-11 16:10:24.339794,-0.19385278,-0.4078287,-0.58655864,-3.0729575,-3.0413454,2.7091873
758,2026-05-11 16:10:24.342579,-0.19385278,-0.4078287,-0.58655864,-3.0729575,-3.0413454,2.7091873
759,2026-05-11 16:10:24.345264,-0.19385278,-0.4078287,-0.58655864,-3.0729575,-3.0413454,2.7091873
760,2026-05-11 16:10:24.347956,-0.19385278,-0.4078287,-0.58655864,-3.0729575,-3.0413454,2.7091873
761,2026-05-11 16:10:24.351111,-0.19385278,-0.4078287,-0.58655864,-3.0729575,-3.0413454,2.7091873
762,2026-05-11 16:10:24.354070,-0.19385278,-0.4078287,-0.58655864,-3.0729575,-3.0413454,2.7091873
763,2026-05-11 16:10:24.356782,-0.19385278,-0.4078287,-0.58655864,-3.0729575,-3.0413454,2.7091873
764,2026-05-11 16:10:24.359407,-0.19385278,-0.4078287,-0.58655864,-3.200934,-3.2178855,2.9263499
765,2026-05-11 16:10:24.362256,-0.19385278,-0.4078287,-0.58655864,-3.200934,-3.2178855,2.9263499
766,2026-05-11 16:10:24.364946,-0.19385278,-0.4078287,-0.58655864,-3.200934,-3.2178855,2.9263499
767,2026-05-11 16:10:24.368159,-0.1030548,-0.39038864,-0.3958158,-3.200934,-3.2178855,2.9263499
768,2026-05-11 16:10:24.371128,-0.1030548,-0.39038864,-0.3958158,-3.200934,-3.2178855,2.9263499
769,2026-05-11 16:10:24.373754,-0.1030548,-0.39038864,-0.3958158,-3.200934,-3.2178855,2.9263499
770,2026-05-11 16:10:24.376346,-0.1030548,-0.39038864,-0.3958158,-3.200934,-3.2178855,2.9263499
771,2026-05-11 16:10:24.379138,-0.1030548,-0.39038864,-0.3958158,-3.200934,-3.2178855,2.9263499
772,2026-05-11 16:10:24.381787,-0.1030548,-0.39038864,-0.3958158,-3.200934,-3.2178855,2.9263499
773,2026-05-11 16:10:24.384895,-0.1030548,-0.39038864,-0.3958158,-3.200934,-3.2178855,2.9263499
774,2026-05-11 16:10:24.387953,-0.1030548,-0.39038864,-0.3958158,-3.200934,-3.2178855,2.9263499
775,2026-05-11 16:10:24.390679,-0.1030548,-0.39038864,-0.3958158,-3.200934,-3.2178855,2.9263499
776,2026-05-11 16:10:24.393310,-0.1030548,-0.39038864,-0.3958158,-3.200934,-3.2178855,2.9263499
777,2026-05-11 16:10:24.396063,-0.1030548,-0.39038864,-0.3958158,-3.200934,-3.2178855,2.9263499
778,2026-05-11 16:10:24.398840,-0.1030548,-0.39038864,-0.3958158,-3.200934,-3.2178855,2.9263499
779,2026-05-11 16:10:24.401773,-0.1030548,-0.39038864,-0.3958158,-3.200934,-3.2178855,2.9263499
780,2026-05-11 16:10:24.404616,-0.06317442,-0.40057215,-0.34264195,-3.2409456,-3.3457088,3.0741794
781,2026-05-11 16:10:24.407477,-0.06317442,-0.40057215,-0.34264195,-3.2409456,-3.3457088,3.0741794
782,2026-05-11 16:10:24.410322,0.11671413,-0.36483836,-0.2667229,-3.460246,-3.661679,3.4049628
783,2026-05-11 16:10:24.413068,0.11671413,-0.36483836,-0.2667229,-3.460246,-3.661679,3.4049628
784,2026-05-11 16:10:24.415853,0.11671413,-0.36483836,-0.2667229,-3.460246,-3.661679,3.4049628
785,2026-05-11 16:10:24.419081,0.11671413,-0.36483836,-0.2667229,-3.460246,-3.661679,3.4049628
786,2026-05-11 16:10:24.421779,0.11671413,-0.36483836,-0.2667229,-3.460246,-3.661679,3.4049628
787,2026-05-11 16:10:24.424521,0.11671413,-0.36483836,-0.2667229,-3.6129625,-3.7836993,3.5030067
788,2026-05-11 16:10:24.427260,0.11671413,-0.36483836,-0.2667229,-3.6129625,-3.7836993,3.5030067
789,2026-05-11 16:10:24.429917,0.11671413,-0.36483836,-0.2667229,-3.6129625,-3.7836993,3.5030067
790,2026-05-11 16:10:24.432625,0.24781933,-0.35166687,-0.20879267,-3.6129625,-3.7836993,3.5030067
791,2026-05-11 16:10:24.435925,0.24781933,-0.35166687,-0.20879267,-3.6129625,-3.7836993,3.5030067
792,2026-05-11 16:10:24.438593,0.24781933,-0.35166687,-0.20879267,-3.6129625,-3.7836993,3.5030067
793,2026-05-11 16:10:24.441181,0.24781933,-0.35166687,-0.20879267,-3.6129625,-3.7836993,3.5030067
794,2026-05-11 16:10:24.444035,0.24781933,-0.35166687,-0.20879267,-3.6129625,-3.7836993,3.5030067
795,2026-05-11 16:10:24.446961,0.3846566,-0.33599523,-0.082626775,-3.7705657,-3.83883,3.5870006
796,2026-05-11 16:10:24.449983,0.47899136,-0.28434587,0.04835648,-3.7705657,-3.83883,3.5870006
797,2026-05-11 16:10:24.452770,0.47899136,-0.28434587,0.04835648,-3.7705657,-3.83883,3.5870006
798,2026-05-11 16:10:24.455407,0.47899136,-0.28434587,0.04835648,-3.7705657,-3.83883,3.5870006
799,2026-05-11 16:10:24.458073,0.47899136,-0.28434587,0.04835648,-3.8727329,-3.8570032,3.6370916
800,2026-05-11 16:10:24.460750,0.47899136,-0.28434587,0.04835648,-3.8727329,-3.8570032,3.6370916
801,2026-05-11 16:10:24.463300,0.47899136,-0.28434587,0.04835648,-3.8727329,-3.8570032,3.6370916
802,2026-05-11 16:10:24.465873,0.47899136,-0.28434587,0.04835648,-3.8727329,-3.8570032,3.6370916
803,2026-05-11 16:10:24.468987,0.47728392,-0.2133661,0.13958131,-3.8727329,-3.8570032,3.6370916
804,2026-05-11 16:10:24.471566,0.47728392,-0.2133661,0.13958131,-3.8727329,-3.8570032,3.6370916
805,2026-05-11 16:10:24.474089,0.47728392,-0.2133661,0.13958131,-3.8727329,-3.8570032,3.6370916
806,2026-05-11 16:10:24.476617,0.47728392,-0.2133661,0.13958131,-3.8727329,-3.8570032,3.6370916
807,2026-05-11 16:10:24.479110,0.47728392,-0.2133661,0.13958131,-3.8727329,-3.8570032,3.6370916
808,2026-05-11 16:10:24.481606,0.47728392,-0.2133661,0.13958131,-3.8727329,-3.8570032,3.6370916
809,2026-05-11 16:10:24.484449,0.47728392,-0.2133661,0.13958131,-3.8727329,-3.8570032,3.6370916
810,2026-05-11 16:10:24.487087,0.47728392,-0.2133661,0.13958131,-3.8727329,-3.8570032,3.6370916
811,2026-05-11 16:10:24.489600,0.47728392,-0.2133661,0.13958131,-3.8727329,-3.8570032,3.6370916
812,2026-05-11 16:10:24.492234,0.47728392,-0.2133661,0.13958131,-3.8727329,-3.8570032,3.6370916
813,2026-05-11 16:10:24.494787,0.47728392,-0.2133661,0.13958131,-3.8727329,-3.8570032,3.6370916
814,2026-05-11 16:10:24.497465,0.47728392,-0.2133661,0.13958131,-3.8727329,-3.8570032,3.6370916
815,2026-05-11 16:10:24.500407,0.47728392,-0.2133661,0.13958131,-3.8727329,-3.8570032,3.6370916
816,2026-05-11 16:10:24.503096,0.47728392,-0.2133661,0.13958131,-3.8727329,-3.8570032,3.6370916
817,2026-05-11 16:10:24.505685,0.47728392,-0.2133661,0.13958131,-3.8727329,-3.8570032,3.6370916
818,2026-05-11 16:10:24.508203,0.47728392,-0.2133661,0.13958131,-3.8727329,-3.8570032,3.6370916
819,2026-05-11 16:10:24.510780,0.47728392,-0.2133661,0.13958131,-3.8727329,-3.8570032,3.6370916
820,2026-05-11 16:10:24.513377,0.47728392,-0.2133661,0.13958131,-3.8727329,-3.8570032,3.6370916
821,2026-05-11 16:10:24.516567,0.47728392,-0.2133661,0.13958131,-3.8727329,-3.8570032,3.6370916
822,2026-05-11 16:10:24.519479,0.47728392,-0.2133661,0.13958131,-3.8727329,-3.8570032,3.6370916
823,2026-05-11 16:10:24.522145,0.47728392,-0.2133661,0.13958131,-3.8727329,-3.8570032,3.6370916
824,2026-05-11 16:10:24.524815,0.47728392,-0.2133661,0.13958131,-3.8727329,-3.8570032,3.6370916
825,2026-05-11 16:10:24.527449,0.47728392,-0.2133661,0.13958131,-3.8727329,-3.8570032,3.6370916
826,2026-05-11 16:10:24.530032,0.47728392,-0.2133661,0.13958131,-3.8727329,-3.8570032,3.6370916
827,2026-05-11 16:10:24.533005,0.47728392,-0.2133661,0.13958131,-4.1453314,-3.9015963,3.7948477
828,2026-05-11 16:10:24.535947,0.47728392,-0.2133661,0.13958131,-4.1453314,-3.9015963,3.7948477
829,2026-05-11 16:10:24.538636,0.453624,-0.158058,0.23556253,-4.1453314,-3.9015963,3.7948477
830,2026-05-11 16:10:24.541378,0.453624,-0.158058,0.23556253,-4.1453314,-3.9015963,3.7948477
831,2026-05-11 16:10:24.544006,0.453624,-0.158058,0.23556253,-4.1453314,-3.9015963,3.7948477
832,2026-05-11 16:10:24.546724,0.453624,-0.158058,0.23556253,-4.1453314,-3.9015963,3.7948477
833,2026-05-11 16:10:24.549815,0.7499218,-0.034880083,0.5885709,-4.544074,-3.7161987,4.033085
834,2026-05-11 16:10:24.552905,0.7499218,-0.034880083,0.5885709,-4.544074,-3.7161987,4.033085
835,2026-05-11 16:10:24.555566,0.7499218,-0.034880083,0.5885709,-4.544074,-3.7161987,4.033085
836,2026-05-11 16:10:24.558145,0.7499218,-0.034880083,0.5885709,-4.544074,-3.7161987,4.033085
837,2026-05-11 16:10:24.560879,0.7499218,-0.034880083,0.5885709,-4.544074,-3.7161987,4.033085
838,2026-05-11 16:10:24.563438,0.7499218,-0.034880083,0.5885709,-4.544074,-3.7161987,4.033085
839,2026-05-11 16:10:24.566183,0.7499218,-0.034880083,0.5885709,-4.544074,-3.7161987,4.033085
840,2026-05-11 16:10:24.569622,0.7499218,-0.034880083,0.5885709,-4.544074,-3.7161987,4.033085
841,2026-05-11 16:10:24.572279,0.7499218,-0.034880083,0.5885709,-4.544074,-3.7161987,4.033085
842,2026-05-11 16:10:24.574884,0.7499218,-0.034880083,0.5885709,-4.544074,-3.7161987,4.033085
843,2026-05-11 16:10:24.577738,0.7499218,-0.034880083,0.5885709,-4.544074,-3.7161987,4.033085
844,2026-05-11 16:10:24.580387,0.7499218,-0.034880083,0.5885709,-4.544074,-3.7161987,4.033085
845,2026-05-11 16:10:24.583272,0.7499218,-0.034880083,0.5885709,-4.544074,-3.7161987,4.033085
846,2026-05-11 16:10:24.586147,0.7499218,-0.034880083,0.5885709,-4.544074,-3.7161987,4.033085
847,2026-05-11 16:10:24.588913,0.7499218,-0.034880083,0.5885709,-4.544074,-3.7161987,4.033085
848,2026-05-11 16:10:24.591588,0.7499218,-0.034880083,0.5885709,-4.544074,-3.7161987,4.033085
849,2026-05-11 16:10:24.594139,0.7499218,-0.034880083,0.5885709,-4.544074,-3.7161987,4.033085
850,2026-05-11 16:10:24.596986,0.7499218,-0.034880083,0.5885709,-4.974734,-3.420998,4.0662246
851,2026-05-11 16:10:24.600189,0.7499218,-0.034880083,0.5885709,-4.974734,-3.420998,4.0662246
852,2026-05-11 16:10:24.603067,0.7499218,-0.034880083,0.5885709,-4.974734,-3.420998,4.0662246
853,2026-05-11 16:10:24.605774,0.7499218,-0.034880083,0.5885709,-4.974734,-3.420998,4.0662246
854,2026-05-11 16:10:24.608386,0.7499218,-0.034880083,0.5885709,-4.974734,-3.420998,4.0662246
855,2026-05-11 16:10:24.611230,0.7499218,-0.034880083,0.5885709,-4.974734,-3.420998,4.0662246
856,2026-05-11 16:10:24.613977,1.3609331,0.15263085,1.3714825,-5.1100407,-3.324787,3.953978
857,2026-05-11 16:10:24.617117,1.3609331,0.15263085,1.3714825,-4.8762317,-3.385568,3.6364808
858,2026-05-11 16:10:24.620158,1.3609331,0.15263085,1.3714825,-4.8762317,-3.385568,3.6364808
859,2026-05-11 16:10:24.622851,1.3609331,0.15263085,1.3714825,-4.8762317,-3.385568,3.6364808
860,2026-05-11 16:10:24.625447,1.3609331,0.15263085,1.3714825,-4.8762317,-3.385568,3.6364808
861,2026-05-11 16:10:24.628102,1.3609331,0.15263085,1.3714825,-4.8762317,-3.385568,3.6364808
862,2026-05-11 16:10:24.630773,1.3609331,0.15263085,1.3714825,-4.8762317,-3.385568,3.6364808
863,2026-05-11 16:10:24.633824,1.3609331,0.15263085,1.3714825,-4.8762317,-3.385568,3.6364808
864,2026-05-11 16:10:24.636578,1.3609331,0.15263085,1.3714825,-4.8762317,-3.385568,3.6364808
865,2026-05-11 16:10:24.639359,1.3609331,0.15263085,1.3714825,-4.8762317,-3.385568,3.6364808
866,2026-05-11 16:10:24.642021,1.5395411,0.30959123,1.7508948,-4.8762317,-3.385568,3.6364808
867,2026-05-11 16:10:24.644710,1.5395411,0.30959123,1.7508948,-4.8762317,-3.385568,3.6364808
868,2026-05-11 16:10:24.647261,1.5395411,0.30959123,1.7508948,-4.8762317,-3.385568,3.6364808
869,2026-05-11 16:10:24.650193,1.270257,0.4251468,1.9093187,-2.845105,-4.0057487,2.0189097
870,2026-05-11 16:10:24.653112,1.270257,0.4251468,1.9093187,-2.845105,-4.0057487,2.0189097
871,2026-05-11 16:10:24.655749,1.270257,0.4251468,1.9093187,-2.845105,-4.0057487,2.0189097
872,2026-05-11 16:10:24.658556,1.270257,0.4251468,1.9093187,-2.845105,-4.0057487,2.0189097
873,2026-05-11 16:10:24.661183,1.270257,0.4251468,1.9093187,-2.845105,-4.0057487,2.0189097
874,2026-05-11 16:10:24.663949,1.270257,0.4251468,1.9093187,-2.845105,-4.0057487,2.0189097
875,2026-05-11 16:10:24.666977,1.270257,0.4251468,1.9093187,-2.845105,-4.0057487,2.0189097
876,2026-05-11 16:10:24.669766,1.270257,0.4251468,1.9093187,-2.845105,-4.0057487,2.0189097
877,2026-05-11 16:10:24.672469,1.270257,0.4251468,1.9093187,-2.845105,-4.0057487,2.0189097
878,2026-05-11 16:10:24.675078,1.270257,0.4251468,1.9093187,-2.845105,-4.0057487,2.0189097
879,2026-05-11 16:10:24.677776,0.79132664,0.4334399,1.7959584,-2.845105,-4.0057487,2.0189097
880,2026-05-11 16:10:24.680334,0.79132664,0.4334399,1.7959584,-2.845105,-4.0057487,2.0189097
881,2026-05-11 16:10:24.683252,0.79132664,0.4334399,1.7959584,-2.845105,-4.0057487,2.0189097
882,2026-05-11 16:10:24.685951,0.79132664,0.4334399,1.7959584,-2.845105,-4.0057487,2.0189097
883,2026-05-11 16:10:24.688503,0.79132664,0.4334399,1.7959584,-2.845105,-4.0057487,2.0189097
884,2026-05-11 16:10:24.691068,0.79132664,0.4334399,1.7959584,-2.845105,-4.0057487,2.0189097
885,2026-05-11 16:10:24.693863,0.79132664,0.4334399,1.7959584,-2.845105,-4.0057487,2.0189097
886,2026-05-11 16:10:24.696484,0.79132664,0.4334399,1.7959584,-2.845105,-4.0057487,2.0189097
887,2026-05-11 16:10:24.699184,0.79132664,0.4334399,1.7959584,-2.845105,-4.0057487,2.0189097
888,2026-05-11 16:10:24.702427,0.79132664,0.4334399,1.7959584,-2.2101104,-4.2071815,1.7652478
889,2026-05-11 16:10:24.705232,0.79132664,0.4334399,1.7959584,-2.2101104,-4.2071815,1.7652478
890,2026-05-11 16:10:24.707889,0.79132664,0.4334399,1.7959584,-2.2101104,-4.2071815,1.7652478
891,2026-05-11 16:10:24.710581,0.79132664,0.4334399,1.7959584,-2.2101104,-4.2071815,1.7652478
892,2026-05-11 16:10:24.713182,0.79132664,0.4334399,1.7959584,-2.2101104,-4.2071815,1.7652478
893,2026-05-11 16:10:24.715784,0.79132664,0.4334399,1.7959584,-2.2101104,-4.2071815,1.7652478
894,2026-05-11 16:10:24.718982,0.79132664,0.4334399,1.7959584,-2.2101104,-4.2071815,1.7652478
895,2026-05-11 16:10:24.721577,0.79132664,0.4334399,1.7959584,-2.2101104,-4.2071815,1.7652478
896,2026-05-11 16:10:24.724284,0.79132664,0.4334399,1.7959584,-2.2101104,-4.2071815,1.7652478
897,2026-05-11 16:10:24.726826,0.79132664,0.4334399,1.7959584,-2.2101104,-4.2071815,1.7652478
898,2026-05-11 16:10:24.729696,0.79132664,0.4334399,1.7959584,-2.2101104,-4.2071815,1.7652478
899,2026-05-11 16:10:24.732438,0.79132664,0.4334399,1.7959584,-2.2101104,-4.2071815,1.7652478
900,2026-05-11 16:10:24.735615,0.79132664,0.4334399,1.7959584,-2.2101104,-4.2071815,1.7652478
901,2026-05-11 16:10:24.738395,0.79132664,0.4334399,1.7959584,-2.2101104,-4.2071815,1.7652478
902,2026-05-11 16:10:24.741017,0.79132664,0.4334399,1.7959584,-2.2101104,-4.2071815,1.7652478
903,2026-05-11 16:10:24.743811,0.46874684,0.35313037,1.6147894,-1.8710803,-4.020715,1.9275852
904,2026-05-11 16:10:24.746486,0.46874684,0.35313037,1.6147894,-1.8710803,-4.020715,1.9275852
905,2026-05-11 16:10:24.749144,0.46874684,0.35313037,1.6147894,-1.8710803,-4.020715,1.9275852
906,2026-05-11 16:10:24.752480,0.46874684,0.35313037,1.6147894,-1.8710803,-4.020715,1.9275852
907,2026-05-11 16:10:24.755350,0.46874684,0.35313037,1.6147894,-1.8710803,-4.020715,1.9275852
908,2026-05-11 16:10:24.758006,0.46874684,0.35313037,1.6147894,-1.8710803,-4.020715,1.9275852
909,2026-05-11 16:10:24.760614,0.46874684,0.35313037,1.6147894,-1.8710803,-4.020715,1.9275852
910,2026-05-11 16:10:24.763481,0.46874684,0.35313037,1.6147894,-1.8710803,-4.020715,1.9275852
911,2026-05-11 16:10:24.766697,0.46874684,0.35313037,1.6147894,-1.8710803,-4.020715,1.9275852
912,2026-05-11 16:10:24.769781,0.46874684,0.35313037,1.6147894,-1.8710803,-4.020715,1.9275852
913,2026-05-11 16:10:24.772445,0.46874684,0.35313037,1.6147894,-1.8710803,-4.020715,1.9275852
914,2026-05-11 16:10:24.775269,0.46874684,0.35313037,1.6147894,-1.8710803,-4.020715,1.9275852
915,2026-05-11 16:10:24.777970,0.46874684,0.35313037,1.6147894,-1.8710803,-4.020715,1.9275852
916,2026-05-11 16:10:24.780761,0.37124115,0.2959319,1.3952034,-1.8710803,-4.020715,1.9275852
917,2026-05-11 16:10:24.783928,0.37124115,0.2959319,1.3952034,-1.8710803,-4.020715,1.9275852
918,2026-05-11 16:10:24.786686,0.37124115,0.2959319,1.3952034,-1.8710803,-4.020715,1.9275852
919,2026-05-11 16:10:24.789473,0.3831321,0.2757478,1.3060517,-1.9579759,-3.4436002,2.3402247
920,2026-05-11 16:10:24.792269,0.3831321,0.2757478,1.3060517,-1.9579759,-3.4436002,2.3402247
921,2026-05-11 16:10:24.795187,0.3831321,0.2757478,1.3060517,-2.1998785,-2.879619,2.679713
922,2026-05-11 16:10:24.797836,0.3831321,0.2757478,1.3060517,-2.1998785,-2.879619,2.679713
923,2026-05-11 16:10:24.800909,0.3831321,0.2757478,1.3060517,-2.1998785,-2.879619,2.679713
924,2026-05-11 16:10:24.803736,0.3831321,0.2757478,1.3060517,-2.1998785,-2.879619,2.679713
925,2026-05-11 16:10:24.806428,0.3831321,0.2757478,1.3060517,-2.1998785,-2.879619,2.679713
926,2026-05-11 16:10:24.809088,0.3831321,0.2757478,1.3060517,-2.1998785,-2.879619,2.679713
927,2026-05-11 16:10:24.811855,0.3831321,0.2757478,1.3060517,-2.1998785,-2.879619,2.679713
928,2026-05-11 16:10:24.814626,0.3831321,0.2757478,1.3060517,-2.1998785,-2.879619,2.679713
929,2026-05-11 16:10:24.817680,0.3831321,0.2757478,1.3060517,-2.1998785,-2.879619,2.679713
930,2026-05-11 16:10:24.820548,0.5081394,0.21050009,1.2927583,-2.1998785,-2.879619,2.679713
931,2026-05-11 16:10:24.823195,0.5081394,0.21050009,1.2927583,-2.1998785,-2.879619,2.679713
932,2026-05-11 16:10:24.825988,0.5081394,0.21050009,1.2927583,-2.4274259,-2.2395847,3.012482
933,2026-05-11 16:10:24.828593,0.5081394,0.21050009,1.2927583,-2.4274259,-2.2395847,3.012482
934,2026-05-11 16:10:24.831260,0.5081394,0.21050009,1.2927583,-2.4274259,-2.2395847,3.012482
935,2026-05-11 16:10:24.834275,0.5081394,0.21050009,1.2927583,-2.4274259,-2.2395847,3.012482
936,2026-05-11 16:10:24.837147,0.71107805,0.19299906,1.3091007,-2.4274259,-2.2395847,3.012482
937,2026-05-11 16:10:24.839813,0.71107805,0.19299906,1.3091007,-2.4274259,-2.2395847,3.012482
938,2026-05-11 16:10:24.842363,0.71107805,0.19299906,1.3091007,-2.4274259,-2.2395847,3.012482
939,2026-05-11 16:10:24.845087,0.71107805,0.19299906,1.3091007,-2.4233024,-1.9871446,3.134655
940,2026-05-11 16:10:24.847637,0.71107805,0.19299906,1.3091007,-2.4233024,-1.9871446,3.134655
941,2026-05-11 16:10:24.850841,0.71107805,0.19299906,1.3091007,-2.4233024,-1.9871446,3.134655
942,2026-05-11 16:10:24.853667,0.71107805,0.19299906,1.3091007,-2.4233024,-1.9871446,3.134655
943,2026-05-11 16:10:24.856432,0.71107805,0.19299906,1.3091007,-2.4233024,-1.9871446,3.134655
944,2026-05-11 16:10:24.859103,0.71107805,0.19299906,1.3091007,-2.4233024,-1.9871446,3.134655
945,2026-05-11 16:10:24.861888,0.71107805,0.19299906,1.3091007,-2.4233024,-1.9871446,3.134655
946,2026-05-11 16:10:24.864497,0.71107805,0.19299906,1.3091007,-2.4233024,-1.9871446,3.134655
947,2026-05-11 16:10:24.867528,0.71107805,0.19299906,1.3091007,-2.4233024,-1.9871446,3.134655
948,2026-05-11 16:10:24.870268,0.71107805,0.19299906,1.3091007,-2.4233024,-1.9871446,3.134655
949,2026-05-11 16:10:24.872833,0.71107805,0.19299906,1.3091007,-2.4233024,-1.9871446,3.134655
950,2026-05-11 16:10:24.875473,1.3214796,0.33386096,1.311418,-2.4233024,-1.9871446,3.134655
951,2026-05-11 16:10:24.878257,1.3214796,0.33386096,1.311418,-2.4233024,-1.9871446,3.134655
952,2026-05-11 16:10:24.880934,1.3214796,0.33386096,1.311418,-2.4233024,-1.9871446,3.134655
953,2026-05-11 16:10:24.884018,1.3214796,0.33386096,1.311418,-2.1174116,-2.0636556,2.7021625
954,2026-05-11 16:10:24.887028,1.3214796,0.33386096,1.311418,-2.1174116,-2.0636556,2.7021625
955,2026-05-11 16:10:24.889724,1.3214796,0.33386096,1.311418,-2.1174116,-2.0636556,2.7021625
956,2026-05-11 16:10:24.892286,1.3214796,0.33386096,1.311418,-2.1174116,-2.0636556,2.7021625
957,2026-05-11 16:10:24.895102,1.3214796,0.33386096,1.311418,-2.1174116,-2.0636556,2.7021625
958,2026-05-11 16:10:24.897795,1.3214796,0.33386096,1.311418,-2.1174116,-2.0636556,2.7021625
959,2026-05-11 16:10:24.900994,1.3214796,0.33386096,1.311418,-2.1174116,-2.0636556,2.7021625
960,2026-05-11 16:10:24.903980,1.3214796,0.33386096,1.311418,-2.1174116,-2.0636556,2.7021625
961,2026-05-11 16:10:24.906685,1.3214796,0.33386096,1.311418,-2.1174116,-2.0636556,2.7021625
962,2026-05-11 16:10:24.909264,1.3214796,0.33386096,1.311418,-2.1174116,-2.0636556,2.7021625
963,2026-05-11 16:10:24.912074,1.3214796,0.33386096,1.311418,-2.1174116,-2.0636556,2.7021625
964,2026-05-11 16:10:24.914730,1.3214796,0.33386096,1.311418,-2.1174116,-2.0636556,2.7021625
965,2026-05-11 16:10:24.918108,1.3214796,0.33386096,1.311418,-2.1174116,-2.0636556,2.7021625
966,2026-05-11 16:10:24.920852,1.3214796,0.33386096,1.311418,-2.1174116,-2.0636556,2.7021625
967,2026-05-11 16:10:24.923529,1.4810619,0.41782925,1.2811112,-2.1174116,-2.0636556,2.7021625
968,2026-05-11 16:10:24.926166,1.4810619,0.41782925,1.2811112,-2.1174116,-2.0636556,2.7021625
969,2026-05-11 16:10:24.928956,1.4810619,0.41782925,1.2811112,-2.1174116,-2.0636556,2.7021625
970,2026-05-11 16:10:24.931553,1.4810619,0.41782925,1.2811112,-2.1174116,-2.0636556,2.7021625
971,2026-05-11 16:10:24.934667,1.4810619,0.41782925,1.2811112,-2.1174116,-2.0636556,2.7021625
972,2026-05-11 16:10:24.937539,1.4810619,0.41782925,1.2811112,-2.1174116,-2.0636556,2.7021625
973,2026-05-11 16:10:24.940148,1.4810619,0.41782925,1.2811112,-2.1174116,-2.0636556,2.7021625
974,2026-05-11 16:10:24.942751,1.4810619,0.41782925,1.2811112,-2.1174116,-2.0636556,2.7021625
975,2026-05-11 16:10:24.945430,1.4810619,0.41782925,1.2811112,-2.1174116,-2.0636556,2.7021625
976,2026-05-11 16:10:24.947991,1.4810619,0.41782925,1.2811112,-2.1174116,-2.0636556,2.7021625
977,2026-05-11 16:10:24.951154,1.4810619,0.41782925,1.2811112,-2.1174116,-2.0636556,2.7021625
978,2026-05-11 16:10:24.953849,1.4810619,0.41782925,1.2811112,-2.1174116,-2.0636556,2.7021625
979,2026-05-11 16:10:24.956475,1.4810619,0.41782925,1.2811112,-1.75975,-2.401464,1.9127718
980,2026-05-11 16:10:24.959264,1.3963009,0.41636577,1.2199492,-1.534188,-2.6348145,1.4165965
981,2026-05-11 16:10:24.961987,1.0509149,0.32831186,0.9724348,-1.4705054,-3.0448577,0.83367836
982,2026-05-11 16:10:24.964602,1.0509149,0.32831186,0.9724348,-1.4705054,-3.0448577,0.83367836
983,2026-05-11 16:10:24.967431,1.0509149,0.32831186,0.9724348,-1.4705054,-3.0448577,0.83367836
984,2026-05-11 16:10:24.970896,1.0509149,0.32831186,0.9724348,-1.4705054,-3.0448577,0.83367836
985,2026-05-11 16:10:24.973743,1.0509149,0.32831186,0.9724348,-1.4705054,-3.0448577,0.83367836
986,2026-05-11 16:10:24.976410,1.0509149,0.32831186,0.9724348,-1.4705054,-3.0448577,0.83367836
987,2026-05-11 16:10:24.978955,1.0509149,0.32831186,0.9724348,-1.4705054,-3.0448577,0.83367836
988,2026-05-11 16:10:24.981692,1.0509149,0.32831186,0.9724348,-1.4705054,-3.0448577,0.83367836
989,2026-05-11 16:10:24.984414,1.0509149,0.32831186,0.9724348,-1.4705054,-3.0448577,0.83367836
990,2026-05-11 16:10:24.987849,1.0509149,0.32831186,0.9724348,-1.4705054,-3.0448577,0.83367836
991,2026-05-11 16:10:24.990740,1.0509149,0.32831186,0.9724348,-1.4705054,-3.0448577,0.83367836
992,2026-05-11 16:10:24.993337,1.0509149,0.32831186,0.9724348,-1.4705054,-3.0448577,0.83367836
993,2026-05-11 16:10:24.995910,1.0509149,0.32831186,0.9724348,-1.4705054,-3.0448577,0.83367836
994,2026-05-11 16:10:24.998662,1.0509149,0.32831186,0.9724348,-1.4705054,-3.0448577,0.83367836
995,2026-05-11 16:10:25.001608,1.0509149,0.32831186,0.9724348,-1.4705054,-3.0448577,0.83367836
996,2026-05-11 16:10:25.004384,1.0509149,0.32831186,0.9724348,-1.4705054,-3.0448577,0.83367836
997,2026-05-11 16:10:25.007035,1.0509149,0.32831186,0.9724348,-1.4705054,-3.0448577,0.83367836
998,2026-05-11 16:10:25.009720,0.86614805,0.28483367,0.9000525,-1.8608483,-3.1450398,0.84559023
999,2026-05-11 16:10:25.012591,0.86614805,0.28483367,0.9000525,-1.8608483,-3.1450398,0.84559023
1000,2026-05-11 16:10:25.015377,0.86614805,0.28483367,0.9000525,-1.8608483,-3.1450398,0.84559023
1001,2026-05-11 16:10:25.018534,0.86614805,0.28483367,0.9000525,-1.8608483,-3.1450398,0.84559023
1002,2026-05-11 16:10:25.021238,0.86614805,0.28483367,0.9000525,-1.8608483,-3.1450398,0.84559023
1003,2026-05-11 16:10:25.024109,0.86614805,0.28483367,0.9000525,-1.8608483,-3.1450398,0.84559023
1004,2026-05-11 16:10:25.026788,0.86614805,0.28483367,0.9000525,-1.8608483,-3.1450398,0.84559023
1005,2026-05-11 16:10:25.029478,0.86614805,0.28483367,0.9000525,-1.8608483,-3.1450398,0.84559023
1006,2026-05-11 16:10:25.032022,0.86614805,0.28483367,0.9000525,-1.8608483,-3.1450398,0.84559023
1007,2026-05-11 16:10:25.035191,0.8243164,0.22300081,0.8719411,-2.441323,-3.0492866,1.0419834
1008,2026-05-11 16:10:25.037825,0.8243164,0.22300081,0.8719411,-2.441323,-3.0492866,1.0419834
1009,2026-05-11 16:10:25.040351,0.8243164,0.22300081,0.8719411,-2.441323,-3.0492866,1.0419834
1010,2026-05-11 16:10:25.042991,0.8243164,0.22300081,0.8719411,-2.441323,-3.0492866,1.0419834
1011,2026-05-11 16:10:25.045549,0.8243164,0.22300081,0.8719411,-2.441323,-3.0492866,1.0419834
1012,2026-05-11 16:10:25.048357,0.8243164,0.22300081,0.8719411,-2.441323,-3.0492866,1.0419834
1013,2026-05-11 16:10:25.051398,0.8243164,0.22300081,0.8719411,-2.441323,-3.0492866,1.0419834
1014,2026-05-11 16:10:25.054206,0.8243164,0.22300081,0.8719411,-2.441323,-3.0492866,1.0419834
1015,2026-05-11 16:10:25.056888,0.8243164,0.22300081,0.8719411,-2.441323,-3.0492866,1.0419834
1016,2026-05-11 16:10:25.059499,0.8243164,0.22300081,0.8719411,-2.441323,-3.0492866,1.0419834
1017,2026-05-11 16:10:25.062437,0.8243164,0.22300081,0.8719411,-2.441323,-3.0492866,1.0419834
1018,2026-05-11 16:10:25.065096,0.8243164,0.22300081,0.8719411,-2.441323,-3.0492866,1.0419834
1019,2026-05-11 16:10:25.068566,0.8243164,0.22300081,0.8719411,-3.042109,-2.7892108,1.2351695
1020,2026-05-11 16:10:25.071733,0.8243164,0.22300081,0.8719411,-3.042109,-2.7892108,1.2351695
1021,2026-05-11 16:10:25.074468,0.8243164,0.22300081,0.8719411,-3.042109,-2.7892108,1.2351695
1022,2026-05-11 16:10:25.077109,0.8243164,0.22300081,0.8719411,-3.042109,-2.7892108,1.2351695
1023,2026-05-11 16:10:25.079713,0.8243164,0.22300081,0.8719411,-3.042109,-2.7892108,1.2351695
1024,2026-05-11 16:10:25.082390,0.8243164,0.22300081,0.8719411,-3.042109,-2.7892108,1.2351695
1025,2026-05-11 16:10:25.085692,0.8243164,0.22300081,0.8719411,-3.042109,-2.7892108,1.2351695
1026,2026-05-11 16:10:25.088761,0.8243164,0.22300081,0.8719411,-3.042109,-2.7892108,1.2351695
1027,2026-05-11 16:10:25.091462,0.85791594,0.16507061,0.90505284,-3.042109,-2.7892108,1.2351695
1028,2026-05-11 16:10:25.094322,0.85791594,0.16507061,0.90505284,-3.042109,-2.7892108,1.2351695
1029,2026-05-11 16:10:25.097035,0.85791594,0.16507061,0.90505284,-3.042109,-2.7892108,1.2351695
1030,2026-05-11 16:10:25.100132,0.85791594,0.16507061,0.90505284,-3.042109,-2.7892108,1.2351695
1031,2026-05-11 16:10:25.103031,0.85791594,0.16507061,0.90505284,-3.042109,-2.7892108,1.2351695
1032,2026-05-11 16:10:25.105750,0.85791594,0.16507061,0.90505284,-3.042109,-2.7892108,1.2351695
1033,2026-05-11 16:10:25.108361,0.85791594,0.16507061,0.90505284,-3.042109,-2.7892108,1.2351695
1034,2026-05-11 16:10:25.111194,0.85791594,0.16507061,0.90505284,-3.042109,-2.7892108,1.2351695
1035,2026-05-11 16:10:25.113861,0.8993817,0.071589544,1.1440302,-3.7519343,-2.1725423,1.5222762
1036,2026-05-11 16:10:25.116954,0.8993817,0.071589544,1.1440302,-3.7519343,-2.1725423,1.5222762
1037,2026-05-11 16:10:25.119858,0.8993817,0.071589544,1.1440302,-3.9396226,-1.8466456,1.755474
1038,2026-05-11 16:10:25.122720,1.3391025,0.09232246,1.3420295,-4.0472875,-1.7188221,1.6995798
1039,2026-05-11 16:10:25.125397,1.3391025,0.09232246,1.3420295,-4.0472875,-1.7188221,1.6995798
1040,2026-05-11 16:10:25.128194,1.3391025,0.09232246,1.3420295,-4.0472875,-1.7188221,1.6995798
1041,2026-05-11 16:10:25.130845,1.3391025,0.09232246,1.3420295,-4.0472875,-1.7188221,1.6995798
1042,2026-05-11 16:10:25.133886,1.3391025,0.09232246,1.3420295,-4.0472875,-1.7188221,1.6995798
1043,2026-05-11 16:10:25.136685,1.3391025,0.09232246,1.3420295,-4.0472875,-1.7188221,1.6995798
1044,2026-05-11 16:10:25.139479,1.3391025,0.09232246,1.3420295,-4.0472875,-1.7188221,1.6995798
1045,2026-05-11 16:10:25.142097,1.3391025,0.09232246,1.3420295,-4.0472875,-1.7188221,1.6995798
1046,2026-05-11 16:10:25.144794,1.3391025,0.09232246,1.3420295,-4.0472875,-1.7188221,1.6995798
1047,2026-05-11 16:10:25.147386,1.3391025,0.09232246,1.3420295,-4.0472875,-1.7188221,1.6995798
1048,2026-05-11 16:10:25.150270,1.3391025,0.09232246,1.3420295,-4.0472875,-1.7188221,1.6995798
1049,2026-05-11 16:10:25.153117,1.3391025,0.09232246,1.3420295,-4.0472875,-1.7188221,1.6995798
1050,2026-05-11 16:10:25.155720,1.3391025,0.09232246,1.3420295,-4.0472875,-1.7188221,1.6995798
1051,2026-05-11 16:10:25.158326,1.3391025,0.09232246,1.3420295,-4.0472875,-1.7188221,1.6995798
1052,2026-05-11 16:10:25.161200,1.3391025,0.09232246,1.3420295,-4.0472875,-1.7188221,1.6995798
1053,2026-05-11 16:10:25.163910,1.3391025,0.09232246,1.3420295,-4.0472875,-1.7188221,1.6995798
1054,2026-05-11 16:10:25.167010,1.3391025,0.09232246,1.3420295,-4.1250205,-1.7400496,1.2379184
1055,2026-05-11 16:10:25.169928,1.5682622,0.12519024,1.4082528,-4.1250205,-1.7400496,1.2379184
1056,2026-05-11 16:10:25.172567,1.5682622,0.12519024,1.4082528,-4.1250205,-1.7400496,1.2379184
1057,2026-05-11 16:10:25.175288,1.5682622,0.12519024,1.4082528,-4.1250205,-1.7400496,1.2379184
1058,2026-05-11 16:10:25.178037,1.5682622,0.12519024,1.4082528,-4.1250205,-1.7400496,1.2379184
1059,2026-05-11 16:10:25.180622,1.5682622,0.12519024,1.4082528,-4.1250205,-1.7400496,1.2379184
1060,2026-05-11 16:10:25.183674,1.5682622,0.12519024,1.4082528,-4.1250205,-1.7400496,1.2379184
1061,2026-05-11 16:10:25.186535,1.5682622,0.12519024,1.4082528,-4.1250205,-1.7400496,1.2379184
1062,2026-05-11 16:10:25.189156,1.5682622,0.12519024,1.4082528,-4.1250205,-1.7400496,1.2379184
1063,2026-05-11 16:10:25.192095,1.7011358,0.14537434,1.566067,-4.1250205,-1.7400496,1.2379184
1064,2026-05-11 16:10:25.194954,1.7011358,0.14537434,1.566067,-4.138765,-1.7308867,0.6737844
1065,2026-05-11 16:10:25.197647,1.6036912,0.13519081,1.7078435,-4.138765,-1.7308867,0.6737844
1066,2026-05-11 16:10:25.200754,1.6036912,0.13519081,1.7078435,-4.138765,-1.7308867,0.6737844
1067,2026-05-11 16:10:25.203495,1.6036912,0.13519081,1.7078435,-4.138765,-1.7308867,0.6737844
1068,2026-05-11 16:10:25.206073,1.6036912,0.13519081,1.7078435,-4.138765,-1.7308867,0.6737844
1069,2026-05-11 16:10:25.208733,1.6036912,0.13519081,1.7078435,-4.138765,-1.7308867,0.6737844
1070,2026-05-11 16:10:25.211281,1.6036912,0.13519081,1.7078435,-4.138765,-1.7308867,0.6737844
1071,2026-05-11 16:10:25.214110,1.6036912,0.13519081,1.7078435,-4.138765,-1.7308867,0.6737844
1072,2026-05-11 16:10:25.217407,1.6036912,0.13519081,1.7078435,-3.9915462,-1.7029396,0.10354166
1073,2026-05-11 16:10:25.220359,1.6036912,0.13519081,1.7078435,-3.9915462,-1.7029396,0.10354166
1074,2026-05-11 16:10:25.223084,1.6036912,0.13519081,1.7078435,-3.9915462,-1.7029396,0.10354166
1075,2026-05-11 16:10:25.225676,1.6036912,0.13519081,1.7078435,-3.9915462,-1.7029396,0.10354166
1076,2026-05-11 16:10:25.228274,1.6036912,0.13519081,1.7078435,-3.9915462,-1.7029396,0.10354166
1077,2026-05-11 16:10:25.245170,1.2956244,0.08098034,1.7785183,-3.5023959,-1.7333301,-0.45112398
1078,2026-05-11 16:10:25.258464,1.2956244,0.08098034,1.7785183,-3.5023959,-1.7333301,-0.45112398
1079,2026-05-11 16:10:25.262826,1.1057962,0.043417167,1.8058981,-3.5023959,-1.7333301,-0.45112398
1080,2026-05-11 16:10:25.269256,1.1057962,0.043417167,1.8058981,-3.5023959,-1.7333301,-0.45112398
1081,2026-05-11 16:10:25.272089,1.1057962,0.043417167,1.8058981,-3.5023959,-1.7333301,-0.45112398
1082,2026-05-11 16:10:25.274711,1.1057962,0.043417167,1.8058981,-3.5023959,-1.7333301,-0.45112398
1083,2026-05-11 16:10:25.277551,1.1057962,0.043417167,1.8058981,-3.5023959,-1.7333301,-0.45112398
1084,2026-05-11 16:10:25.280155,1.1057962,0.043417167,1.8058981,-3.5023959,-1.7333301,-0.45112398
1085,2026-05-11 16:10:25.283177,1.1057962,0.043417167,1.8058981,-3.5023959,-1.7333301,-0.45112398
1086,2026-05-11 16:10:25.285868,1.1057962,0.043417167,1.8058981,-3.5023959,-1.7333301,-0.45112398
1087,2026-05-11 16:10:25.288620,1.1057962,0.043417167,1.8058981,-3.1916182,-1.8231273,-0.5222898
1088,2026-05-11 16:10:25.291399,1.1057962,0.043417167,1.8058981,-3.1916182,-1.8231273,-0.5222898
1089,2026-05-11 16:10:25.294186,1.1057962,0.043417167,1.8058981,-3.1916182,-1.8231273,-0.5222898
1090,2026-05-11 16:10:25.297091,1.1057962,0.043417167,1.8058981,-3.1916182,-1.8231273,-0.5222898
1091,2026-05-11 16:10:25.300287,1.1057962,0.043417167,1.8058981,-3.1916182,-1.8231273,-0.5222898
1092,2026-05-11 16:10:25.303206,1.1057962,0.043417167,1.8058981,-3.1916182,-1.8231273,-0.5222898
1093,2026-05-11 16:10:25.305893,0.810901,0.012561709,1.8815733,-2.5028677,-2.044566,-0.3817908
1094,2026-05-11 16:10:25.308807,0.810901,0.012561709,1.8815733,-2.0470095,-2.0303633,-0.22006421
1095,2026-05-11 16:10:25.311486,0.810901,0.012561709,1.8815733,-2.0470095,-2.0303633,-0.22006421
1096,2026-05-11 16:10:25.314154,0.810901,0.012561709,1.8815733,-2.0470095,-2.0303633,-0.22006421
1097,2026-05-11 16:10:25.317407,0.7894363,-0.0009756667,1.6507062,-2.0470095,-2.0303633,-0.22006421
1098,2026-05-11 16:10:25.320227,0.7894363,-0.0009756667,1.6507062,-2.0470095,-2.0303633,-0.22006421
1099,2026-05-11 16:10:25.322964,0.7894363,-0.0009756667,1.6507062,-2.0470095,-2.0303633,-0.22006421
1100,2026-05-11 16:10:25.325754,0.7894363,-0.0009756667,1.6507062,-1.9903517,-1.7789923,-0.12492194
1101,2026-05-11 16:10:25.328360,0.7894363,-0.0009756667,1.6507062,-1.9903517,-1.7789923,-0.12492194
1102,2026-05-11 16:10:25.331205,0.7894363,-0.0009756667,1.6507062,-1.9903517,-1.7789923,-0.12492194
1103,2026-05-11 16:10:25.334319,0.7894363,-0.0009756667,1.6507062,-1.9903517,-1.7789923,-0.12492194
1104,2026-05-11 16:10:25.337042,0.7894363,-0.0009756667,1.6507062,-1.9903517,-1.7789923,-0.12492194
1105,2026-05-11 16:10:25.339743,0.7894363,-0.0009756667,1.6507062,-1.9903517,-1.7789923,-0.12492194
1106,2026-05-11 16:10:25.342550,0.7894363,-0.0009756667,1.6507062,-1.9903517,-1.7789923,-0.12492194
1107,2026-05-11 16:10:25.345212,0.7894363,-0.0009756667,1.6507062,-1.9903517,-1.7789923,-0.12492194
1108,2026-05-11 16:10:25.347890,0.7894363,-0.0009756667,1.6507062,-1.9903517,-1.7789923,-0.12492194
1109,2026-05-11 16:10:25.350936,0.7894363,-0.0009756667,1.6507062,-1.9903517,-1.7789923,-0.12492194
1110,2026-05-11 16:10:25.353669,0.7894363,-0.0009756667,1.6507062,-1.9903517,-1.7789923,-0.12492194
1111,2026-05-11 16:10:25.356493,0.78791183,-0.023842854,1.6954038,-1.9903517,-1.7789923,-0.12492194
1112,2026-05-11 16:10:25.359101,0.78791183,-0.023842854,1.6954038,-1.9903517,-1.7789923,-0.12492194
1113,2026-05-11 16:10:25.362025,0.78791183,-0.023842854,1.6954038,-1.9903517,-1.7789923,-0.12492194
1114,2026-05-11 16:10:25.364668,0.78791183,-0.023842854,1.6954038,-2.3710735,-1.077719,0.008552114
1115,2026-05-11 16:10:25.367642,0.78791183,-0.023842854,1.6954038,-2.3710735,-1.077719,0.008552114
1116,2026-05-11 16:10:25.370348,0.78791183,-0.023842854,1.6954038,-2.3710735,-1.077719,0.008552114
1117,2026-05-11 16:10:25.372934,0.78791183,-0.023842854,1.6954038,-2.3710735,-1.077719,0.008552114
1118,2026-05-11 16:10:25.375672,0.78791183,-0.023842854,1.6954038,-2.3710735,-1.077719,0.008552114
1119,2026-05-11 16:10:25.378367,0.8178526,0.05573496,2.0263376,-2.4811819,-0.5006041,-0.11133019
1120,2026-05-11 16:10:25.380953,0.8178526,0.05573496,2.0263376,-2.4811819,-0.5006041,-0.11133019
1121,2026-05-11 16:10:25.384076,0.8178526,0.05573496,2.0263376,-2.4811819,-0.5006041,-0.11133019
1122,2026-05-11 16:10:25.386776,0.8178526,0.05573496,2.0263376,-2.4811819,-0.5006041,-0.11133019
1123,2026-05-11 16:10:25.389404,0.8178526,0.05573496,2.0263376,-2.4811819,-0.5006041,-0.11133019
1124,2026-05-11 16:10:25.392085,0.8178526,0.05573496,2.0263376,-2.4811819,-0.5006041,-0.11133019
1125,2026-05-11 16:10:25.394702,0.8178526,0.05573496,2.0263376,-2.4811819,-0.5006041,-0.11133019
1126,2026-05-11 16:10:25.397538,0.8178526,0.05573496,2.0263376,-2.4811819,-0.5006041,-0.11133019
1127,2026-05-11 16:10:25.400560,0.778643,0.071040735,2.32416,-2.1041253,-0.28771752,-0.19792034
1128,2026-05-11 16:10:25.403302,0.778643,0.071040735,2.32416,-2.1041253,-0.28771752,-0.19792034
1129,2026-05-11 16:10:25.406074,0.778643,0.071040735,2.32416,-2.1041253,-0.28771752,-0.19792034
1130,2026-05-11 16:10:25.408853,0.778643,0.071040735,2.32416,-2.1041253,-0.28771752,-0.19792034
1131,2026-05-11 16:10:25.411598,0.67314905,0.07896802,2.3583083,-1.6210836,-0.119729586,-0.2510656
1132,2026-05-11 16:10:25.414276,0.67314905,0.07896802,2.3583083,-0.37048978,0.3119994,-0.22250767
1133,2026-05-11 16:10:25.417270,0.6214387,0.078480184,2.3478808,-0.37048978,0.3119994,-0.22250767
1134,2026-05-11 16:10:25.420001,0.6214387,0.078480184,2.3478808,-0.37048978,0.3119994,-0.22250767
1135,2026-05-11 16:10:25.422803,0.6214387,0.078480184,2.3478808,-0.37048978,0.3119994,-0.22250767
1136,2026-05-11 16:10:25.425541,0.6214387,0.078480184,2.3478808,-0.37048978,0.3119994,-0.22250767
1137,2026-05-11 16:10:25.428210,0.6214387,0.078480184,2.3478808,-0.37048978,0.3119994,-0.22250767
1138,2026-05-11 16:10:25.430859,0.6214387,0.078480184,2.3478808,-0.37048978,0.3119994,-0.22250767
1139,2026-05-11 16:10:25.433831,0.6214387,0.078480184,2.3478808,-0.37048978,0.3119994,-0.22250767
1140,2026-05-11 16:10:25.436696,0.6214387,0.078480184,2.3478808,-0.37048978,0.3119994,-0.22250767
1141,2026-05-11 16:10:25.439572,0.6214387,0.078480184,2.3478808,0.20173825,0.7609854,-0.14966199
1142,2026-05-11 16:10:25.442214,0.6214387,0.078480184,2.3478808,0.20173825,0.7609854,-0.14966199
1143,2026-05-11 16:10:25.445039,0.6214387,0.078480184,2.3478808,0.20173825,0.7609854,-0.14966199
1144,2026-05-11 16:10:25.447729,0.6214387,0.078480184,2.3478808,0.20173825,0.7609854,-0.14966199
1145,2026-05-11 16:10:25.450803,0.6214387,0.078480184,2.3478808,0.20173825,0.7609854,-0.14966199
1146,2026-05-11 16:10:25.453580,0.6214387,0.078480184,2.3478808,0.20173825,0.7609854,-0.14966199
1147,2026-05-11 16:10:25.456333,0.5665574,0.06085721,2.2371428,0.20173825,0.7609854,-0.14966199
1148,2026-05-11 16:10:25.458917,0.5665574,0.06085721,2.2371428,0.20173825,0.7609854,-0.14966199
1149,2026-05-11 16:10:25.461859,0.5182619,0.070065066,2.023228,0.20173825,0.7609854,-0.14966199
1150,2026-05-11 16:10:25.464558,0.5182619,0.070065066,2.023228,0.20173825,0.7609854,-0.14966199
1151,2026-05-11 16:10:25.467588,0.5182619,0.070065066,2.023228,0.73426,1.4344643,-0.05131268
1152,2026-05-11 16:10:25.470403,0.5182619,0.070065066,2.023228,0.73426,1.4344643,-0.05131268
1153,2026-05-11 16:10:25.473107,0.5182619,0.070065066,2.023228,0.73426,1.4344643,-0.05131268
1154,2026-05-11 16:10:25.475699,0.5182619,0.070065066,2.023228,0.73426,1.4344643,-0.05131268
1155,2026-05-11 16:10:25.478415,0.5182619,0.070065066,2.023228,0.73426,1.4344643,-0.05131268
1156,2026-05-11 16:10:25.481015,0.5182619,0.070065066,2.023228,0.73426,1.4344643,-0.05131268
1157,2026-05-11 16:10:25.484125,0.5182619,0.070065066,2.023228,0.73426,1.4344643,-0.05131268
1158,2026-05-11 16:10:25.486862,0.5182619,0.070065066,2.023228,0.73426,1.4344643,-0.05131268
1159,2026-05-11 16:10:25.489641,0.5182619,0.070065066,2.023228,0.73426,1.4344643,-0.05131268
1160,2026-05-11 16:10:25.492285,0.5182619,0.070065066,2.023228,0.73426,1.4344643,-0.05131268
1161,2026-05-11 16:10:25.494894,0.5182619,0.070065066,2.023228,0.73426,1.4344643,-0.05131268
1162,2026-05-11 16:10:25.497668,0.5182619,0.070065066,2.023228,0.73426,1.4344643,-0.05131268
1163,2026-05-11 16:10:25.500742,0.5182619,0.070065066,2.023228,0.73426,1.4344643,-0.05131268
1164,2026-05-11 16:10:25.503465,0.5182619,0.070065066,2.023228,0.73426,1.4344643,-0.05131268
1165,2026-05-11 16:10:25.506082,0.5182619,0.070065066,2.023228,0.73426,1.4344643,-0.05131268
1166,2026-05-11 16:10:25.508802,0.509298,0.08463909,1.8713286,0.87369,1.623527,-0.026572637
1167,2026-05-11 16:10:25.511528,0.509298,0.08463909,1.8713286,0.87369,1.623527,-0.026572637
1168,2026-05-11 16:10:25.514115,0.509298,0.08463909,1.8713286,0.87369,1.623527,-0.026572637
1169,2026-05-11 16:10:25.517267,0.509298,0.08463909,1.8713286,0.87369,1.623527,-0.026572637
1170,2026-05-11 16:10:25.519991,0.509298,0.08463909,1.8713286,0.87369,1.623527,-0.026572637
1171,2026-05-11 16:10:25.522742,0.509298,0.08463909,1.8713286,0.87369,1.623527,-0.026572637
1172,2026-05-11 16:10:25.525451,0.509298,0.08463909,1.8713286,0.87369,1.623527,-0.026572637
1173,2026-05-11 16:10:25.528046,0.509298,0.08463909,1.8713286,0.87369,1.623527,-0.026572637
1174,2026-05-11 16:10:25.530788,0.509298,0.08463909,1.8713286,0.87369,1.623527,-0.026572637
1175,2026-05-11 16:10:25.533694,0.509298,0.08463909,1.8713286,0.87369,1.623527,-0.026572637
1176,2026-05-11 16:10:25.536399,0.509298,0.08463909,1.8713286,0.87369,1.623527,-0.026572637
1177,2026-05-11 16:10:25.539137,0.51204205,0.08232188,1.7491266,0.87369,1.623527,-0.026572637
1178,2026-05-11 16:10:25.541750,0.51204205,0.08232188,1.7491266,0.87369,1.623527,-0.026572637
1179,2026-05-11 16:10:25.544504,0.51204205,0.08232188,1.7491266,0.87369,1.623527,-0.026572637
1180,2026-05-11 16:10:25.547191,0.52686,0.084212236,1.6532671,1.012051,1.8051068,-0.014049901
1181,2026-05-11 16:10:25.550536,0.52686,0.084212236,1.6532671,1.0676397,1.8403842,-0.022449298
1182,2026-05-11 16:10:25.553384,0.52686,0.084212236,1.6532671,1.0676397,1.8403842,-0.022449298
1183,2026-05-11 16:10:25.556024,0.52686,0.084212236,1.6532671,1.0676397,1.8403842,-0.022449298
1184,2026-05-11 16:10:25.558776,0.52686,0.084212236,1.6532671,1.0676397,1.8403842,-0.022449298
1185,2026-05-11 16:10:25.561615,0.57338715,0.095615335,1.5809458,1.1158981,1.7993035,-0.079107046
1186,2026-05-11 16:10:25.564317,0.57338715,0.095615335,1.5809458,1.1158981,1.7993035,-0.079107046
1187,2026-05-11 16:10:25.567638,0.57338715,0.095615335,1.5809458,1.1158981,1.7993035,-0.079107046
1188,2026-05-11 16:10:25.570389,0.57338715,0.095615335,1.5809458,1.1158981,1.7993035,-0.079107046
1189,2026-05-11 16:10:25.573003,0.57338715,0.095615335,1.5809458,1.1158981,1.7993035,-0.079107046
1190,2026-05-11 16:10:25.575618,0.57338715,0.095615335,1.5809458,1.1158981,1.7993035,-0.079107046
1191,2026-05-11 16:10:25.578201,0.57338715,0.095615335,1.5809458,1.1158981,1.7993035,-0.079107046
1192,2026-05-11 16:10:25.580768,0.57338715,0.095615335,1.5809458,1.1158981,1.7993035,-0.079107046
1193,2026-05-11 16:10:25.583874,0.57338715,0.095615335,1.5809458,1.1158981,1.7993035,-0.079107046
1194,2026-05-11 16:10:25.586645,0.57338715,0.095615335,1.5809458,1.1158981,1.7993035,-0.079107046
1195,2026-05-11 16:10:25.589350,0.57338715,0.095615335,1.5809458,1.1494957,1.7570012,-0.17608191
1196,2026-05-11 16:10:25.592151,0.57338715,0.095615335,1.5809458,1.1494957,1.7570012,-0.17608191
1197,2026-05-11 16:10:25.594759,0.57338715,0.095615335,1.5809458,1.1494957,1.7570012,-0.17608191
1198,2026-05-11 16:10:25.597280,0.57338715,0.095615335,1.5809458,1.1494957,1.7570012,-0.17608191
1199,2026-05-11 16:10:25.600220,0.57338715,0.095615335,1.5809458,1.1494957,1.7570012,-0.17608191
1200,2026-05-11 16:10:25.603035,0.57338715,0.095615335,1.5809458,1.1494957,1.7570012,-0.17608191
1201,2026-05-11 16:10:25.605762,0.6446108,0.104945146,1.5875926,1.1494957,1.7570012,-0.17608191
1202,2026-05-11 16:10:25.608345,0.6446108,0.104945146,1.5875926,1.1494957,1.7570012,-0.17608191
1203,2026-05-11 16:10:25.610978,0.6446108,0.104945146,1.5875926,1.1494957,1.7570012,-0.17608191
1204,2026-05-11 16:10:25.613621,0.7216275,0.11250656,1.6210092,1.2089024,1.7537941,-0.35934147
1205,2026-05-11 16:10:25.616716,0.7332745,0.1009815,1.6570479,1.3096951,1.8214475,-0.5861252
1206,2026-05-11 16:10:25.619587,0.7332745,0.1009815,1.6570479,1.3096951,1.8214475,-0.5861252
1207,2026-05-11 16:10:25.622218,0.7332745,0.1009815,1.6570479,1.3096951,1.8214475,-0.5861252
1208,2026-05-11 16:10:25.624769,0.7332745,0.1009815,1.6570479,1.3096951,1.8214475,-0.5861252
1209,2026-05-11 16:10:25.627491,0.7332745,0.1009815,1.6570479,1.3096951,1.8214475,-0.5861252
1210,2026-05-11 16:10:25.630030,0.7332745,0.1009815,1.6570479,1.3096951,1.8214475,-0.5861252
1211,2026-05-11 16:10:25.632636,0.7332745,0.1009815,1.6570479,1.3096951,1.8214475,-0.5861252
1212,2026-05-11 16:10:25.635884,0.7332745,0.1009815,1.6570479,1.3096951,1.8214475,-0.5861252
1213,2026-05-11 16:10:25.638550,0.72351784,0.07543123,1.6725366,1.3096951,1.8214475,-0.5861252
1214,2026-05-11 16:10:25.641460,0.72351784,0.07543123,1.6725366,1.3800973,1.8994855,-0.6977608
1215,2026-05-11 16:10:25.644178,0.72351784,0.07543123,1.6725366,1.3800973,1.8994855,-0.6977608
1216,2026-05-11 16:10:25.646849,0.72351784,0.07543123,1.6725366,1.3800973,1.8994855,-0.6977608
1217,2026-05-11 16:10:25.649803,0.72351784,0.07543123,1.6725366,1.3800973,1.8994855,-0.6977608
1218,2026-05-11 16:10:25.652730,0.72351784,0.07543123,1.6725366,1.3800973,1.8994855,-0.6977608
1219,2026-05-11 16:10:25.655441,0.6021693,-0.040429186,1.6167407,1.5209018,2.1288655,-0.8142834
1220,2026-05-11 16:10:25.658046,0.6021693,-0.040429186,1.6167407,1.5209018,2.1288655,-0.8142834
1221,2026-05-11 16:10:25.660863,0.6021693,-0.040429186,1.6167407,1.5209018,2.1288655,-0.8142834
1222,2026-05-11 16:10:25.663497,0.6021693,-0.040429186,1.6167407,1.5641204,2.3741279,-0.75579304
1223,2026-05-11 16:10:25.666561,0.64564747,-0.050612707,1.6100329,1.5641204,2.3741279,-0.75579304
1224,2026-05-11 16:10:25.669661,0.64564747,-0.050612707,1.6100329,1.5641204,2.3741279,-0.75579304
1225,2026-05-11 16:10:25.672427,0.64564747,-0.050612707,1.6100329,1.5641204,2.3741279,-0.75579304
1226,2026-05-11 16:10:25.675207,0.64564747,-0.050612707,1.6100329,1.5641204,2.3741279,-0.75579304
1227,2026-05-11 16:10:25.677804,0.64564747,-0.050612707,1.6100329,1.5641204,2.3741279,-0.75579304
1228,2026-05-11 16:10:25.680437,0.64564747,-0.050612707,1.6100329,1.5641204,2.3741279,-0.75579304
1229,2026-05-11 16:10:25.683308,0.64564747,-0.050612707,1.6100329,1.5641204,2.3741279,-0.75579304
1230,2026-05-11 16:10:25.686350,0.64564747,-0.050612707,1.6100329,1.5641204,2.3741279,-0.75579304
1231,2026-05-11 16:10:25.689014,0.64564747,-0.050612707,1.6100329,1.5685493,2.5439484,-0.6479753
1232,2026-05-11 16:10:25.691593,0.64564747,-0.050612707,1.6100329,1.5685493,2.5439484,-0.6479753
1233,2026-05-11 16:10:25.694372,0.64564747,-0.050612707,1.6100329,1.5685493,2.5439484,-0.6479753
1234,2026-05-11 16:10:25.696934,0.64564747,-0.050612707,1.6100329,1.5685493,2.5439484,-0.6479753
1235,2026-05-11 16:10:25.700005,0.64564747,-0.050612707,1.6100329,1.5685493,2.5439484,-0.6479753
1236,2026-05-11 16:10:25.702774,0.64564747,-0.050612707,1.6100329,1.5685493,2.5439484,-0.6479753
1237,2026-05-11 16:10:25.705379,0.64564747,-0.050612707,1.6100329,1.5685493,2.5439484,-0.6479753
1238,2026-05-11 16:10:25.707963,0.64564747,-0.050612707,1.6100329,1.5685493,2.5439484,-0.6479753
1239,2026-05-11 16:10:25.710522,0.64564747,-0.050612707,1.6100329,1.5685493,2.5439484,-0.6479753
1240,2026-05-11 16:10:25.713270,0.64564747,-0.050612707,1.6100329,1.5685493,2.5439484,-0.6479753
1241,2026-05-11 16:10:25.716024,0.64564747,-0.050612707,1.6100329,1.5685493,2.5439484,-0.6479753
1242,2026-05-11 16:10:25.719006,0.64564747,-0.050612707,1.6100329,1.6308575,2.6752844,-0.61621034
1243,2026-05-11 16:10:25.721612,0.64564747,-0.050612707,1.6100329,1.6308575,2.6752844,-0.61621034
1244,2026-05-11 16:10:25.724433,0.64564747,-0.050612707,1.6100329,1.6308575,2.6752844,-0.61621034
1245,2026-05-11 16:10:25.727095,0.64564747,-0.050612707,1.6100329,1.6308575,2.6752844,-0.61621034
1246,2026-05-11 16:10:25.729888,0.64564747,-0.050612707,1.6100329,1.6308575,2.6752844,-0.61621034
1247,2026-05-11 16:10:25.732490,0.64564747,-0.050612707,1.6100329,1.6308575,2.6752844,-0.61621034
1248,2026-05-11 16:10:25.735708,0.8373049,-0.031770147,1.654182,1.6308575,2.6752844,-0.61621034
1249,2026-05-11 16:10:25.738515,0.8373049,-0.031770147,1.654182,1.6308575,2.6752844,-0.61621034
1250,2026-05-11 16:10:25.741110,0.8373049,-0.031770147,1.654182,1.6308575,2.6752844,-0.61621034
1251,2026-05-11 16:10:25.743792,0.8373049,-0.031770147,1.654182,1.6308575,2.6752844,-0.61621034
1252,2026-05-11 16:10:25.746539,0.8373049,-0.031770147,1.654182,1.6308575,2.6752844,-0.61621034
1253,2026-05-11 16:10:25.749304,0.8373049,-0.031770147,1.654182,1.6308575,2.6752844,-0.61621034
1254,2026-05-11 16:10:25.752513,0.8373049,-0.031770147,1.654182,1.6308575,2.6752844,-0.61621034
1255,2026-05-11 16:10:25.755130,0.8373049,-0.031770147,1.654182,1.6308575,2.6752844,-0.61621034
1256,2026-05-11 16:10:25.758001,0.8373049,-0.031770147,1.654182,1.7275269,2.719572,-0.71853024
1257,2026-05-11 16:10:25.760850,0.8373049,-0.031770147,1.654182,1.7275269,2.719572,-0.71853024
1258,2026-05-11 16:10:25.763554,0.92749316,-0.020732917,1.69205,1.9462167,2.888171,-0.95432425
1259,2026-05-11 16:10:25.766441,0.92749316,-0.020732917,1.69205,1.9462167,2.888171,-0.95432425
1260,2026-05-11 16:10:25.769551,0.92749316,-0.020732917,1.69205,1.9462167,2.888171,-0.95432425
1261,2026-05-11 16:10:25.772299,0.92749316,-0.020732917,1.69205,1.9462167,2.888171,-0.95432425
1262,2026-05-11 16:10:25.775071,0.8213284,-0.089517415,1.6155211,1.9462167,2.888171,-0.95432425
1263,2026-05-11 16:10:25.777854,0.7063217,-0.12799528,1.5326505,2.0450242,3.1479414,-1.0166324
